"id","participant_id","item_id","item","item_type","trial_index","correct_answer","response","is_correct","reaction_time","trial_ptr_id","question_id"
134,124,"3_fb_1_e_e_im",3,"attention_check",6,"sink","basket","False",3850.90000009537,134,"start_loc"
135,124,"3_fb_1_e_e_im",3,"attention_check",7,"basket","sink","False",3586.40000009537,135,"end_loc"
137,111,"9_tb_1_e_s_im",9,"attention_check",6,"cupboard","cupboard","True",5684,137,"start_loc"
138,111,"9_tb_1_e_s_im",9,"attention_check",7,"drawer","drawer","True",4649.79999999702,138,"end_loc"
140,106,"9_tb_1_e_e_im",9,"attention_check",6,"cupboard","good","False",6637,140,"start_loc"
141,106,"9_tb_1_e_e_im",9,"attention_check",7,"drawer","fine","False",8283.7999997139,141,"end_loc"
143,110,"1_fb_1_e_e_im",1,"attention_check",6,"box","box","True",12030,143,"start_loc"
144,110,"1_fb_1_e_e_im",1,"attention_check",7,"basket","basket","True",4079.59999999404,144,"end_loc"
146,122,"3_tb_1_e_e_ex",3,"attention_check",6,"sink","sink","True",5003.40000009537,146,"start_loc"
147,122,"3_tb_1_e_e_ex",3,"attention_check",7,"basket","basket","True",3731.10000014305,147,"end_loc"
149,113,"11_fb_1_e_s_ex",11,"attention_check",6,"suitcase","suitcase","True",5330.20000000298,149,"start_loc"
150,113,"11_fb_1_e_s_ex",11,"attention_check",7,"backpack","backpack","True",4146.5,150,"end_loc"
152,149,"11_tb_1_e_e_im",11,"attention_check",6,"suitcase","backpack","False",7313,152,"start_loc"
153,149,"11_tb_1_e_e_im",11,"attention_check",7,"backpack","table","False",3326,153,"end_loc"
155,120,"3_tb_1_s_e_im",3,"attention_check",6,"sink","sink","True",4553,155,"start_loc"
156,120,"3_tb_1_s_e_im",3,"attention_check",7,"basket","sink","False",6915.80000001192,156,"end_loc"
158,129,"8_tb_1_s_e_ex",8,"attention_check",6,"hall","hall","True",4596,158,"start_loc"
159,129,"8_tb_1_s_e_ex",8,"attention_check",7,"bedroom","bedroom","True",3709,159,"end_loc"
161,152,"9_tb_1_s_s_im",9,"attention_check",6,"cupboard","counter","False",7525.79999995232,161,"start_loc"
162,152,"9_tb_1_s_s_im",9,"attention_check",7,"drawer","cupboard","False",4811.79999995232,162,"end_loc"
164,136,"3_tb_1_e_s_im",3,"attention_check",6,"sink","sink","True",4891,164,"start_loc"
165,136,"3_tb_1_e_s_im",3,"attention_check",7,"basket","basket","True",6818,165,"end_loc"
167,115,"11_tb_1_e_e_ex",11,"attention_check",6,"suitcase","suitcase","True",11154.1000001431,167,"start_loc"
168,115,"11_tb_1_e_e_ex",11,"attention_check",7,"backpack","backpack","True",4506.29999995232,168,"end_loc"
170,156,"8_fb_1_s_e_im",8,"attention_check",6,"hall","hall","True",9258,170,"start_loc"
171,156,"8_fb_1_s_e_im",8,"attention_check",7,"bedroom","bedroom","True",3086,171,"end_loc"
173,265,"4_fb_1_s_e_ex",4,"attention_check",6,"shed","shed","True",9503.5,173,"start_loc"
174,265,"4_fb_1_s_e_ex",4,"attention_check",7,"garage","garage","True",4591,174,"end_loc"
176,127,"2_tb_1_e_s_im",2,"attention_check",6,"cupboard","cupboard","True",3841.69999999925,176,"start_loc"
177,127,"2_tb_1_e_s_im",2,"attention_check",7,"fridge","fridge","True",2765.5,177,"end_loc"
179,162,"9_tb_1_s_s_ex",9,"attention_check",6,"cupboard","cupboard","True",5765.90000000037,179,"start_loc"
180,162,"9_tb_1_s_s_ex",9,"attention_check",7,"drawer","drawer","True",6514.59999999963,180,"end_loc"
182,242,"9_tb_1_e_e_ex",9,"attention_check",6,"cupboard","cabinet","False",4998.10000002384,182,"start_loc"
183,242,"9_tb_1_e_e_ex",9,"attention_check",7,"drawer","drawer","True",8537.29999995232,183,"end_loc"
185,284,"7_tb_1_e_s_ex",7,"attention_check",6,"garage","garage","True",4415,185,"start_loc"
186,284,"7_tb_1_e_s_ex",7,"attention_check",7,"fridge","fridge","True",2916.5,186,"end_loc"
188,189,"6_tb_1_e_s_im",6,"attention_check",6,"drawer","drawer","True",4442.5,188,"start_loc"
189,189,"6_tb_1_e_s_im",6,"attention_check",7,"cabinet","cabinet","True",7912.5,189,"end_loc"
191,128,"6_fb_1_s_e_ex",6,"attention_check",6,"drawer","in the drawer","False",21436.0999999642,191,"start_loc"
192,128,"6_fb_1_s_e_ex",6,"attention_check",7,"cabinet","in the cabinet","False",6486.40000003576,192,"end_loc"
194,114,"5_tb_1_e_e_ex",5,"attention_check",6,"hall","hall","True",4759.60000002384,194,"start_loc"
195,114,"5_tb_1_e_e_ex",5,"attention_check",7,"study","study","True",3190.29999995232,195,"end_loc"
197,168,"11_fb_1_e_e_ex",11,"attention_check",6,"suitcase","suitcase","True",6448.40000000037,197,"start_loc"
198,168,"11_fb_1_e_e_ex",11,"attention_check",7,"backpack","her purse","False",7766.59999999963,198,"end_loc"
200,116,"2_tb_1_s_s_im",2,"attention_check",6,"cupboard","shelve","False",10542.3000000007,200,"start_loc"
201,116,"2_tb_1_s_s_im",2,"attention_check",7,"fridge","refrigetor","False",15266,201,"end_loc"
203,121,"5_tb_1_e_e_im",5,"attention_check",6,"hall","hall","True",8554.10000000894,203,"start_loc"
204,121,"5_tb_1_e_e_im",5,"attention_check",7,"study","study","True",11394.400000006,204,"end_loc"
206,163,"10_tb_1_e_e_im",10,"attention_check",6,"toolbox","toolbox","True",8636.90000009537,206,"start_loc"
207,163,"10_tb_1_e_e_im",10,"attention_check",7,"van","van","True",7240,207,"end_loc"
209,175,"7_tb_1_s_s_ex",7,"attention_check",6,"garage","Fridge","False",6811,209,"start_loc"
210,175,"7_tb_1_s_s_ex",7,"attention_check",7,"fridge","Fridge","True",10148,210,"end_loc"
212,119,"3_tb_1_s_s_im",3,"attention_check",6,"sink","basket","False",5877.29999998212,212,"start_loc"
213,119,"3_tb_1_s_s_im",3,"attention_check",7,"basket","dryer","False",4856.20000001788,213,"end_loc"
215,117,"3_tb_1_e_s_ex",3,"attention_check",6,"sink","sink","True",4639.2999997139,215,"start_loc"
216,117,"3_tb_1_e_s_ex",3,"attention_check",7,"basket","basket","True",4329.80000019073,216,"end_loc"
218,223,"2_fb_1_s_s_im",2,"attention_check",6,"cupboard","cupboard","True",6358,218,"start_loc"
219,223,"2_fb_1_s_s_im",2,"attention_check",7,"fridge","refrigerator","False",6814,219,"end_loc"
221,108,"9_fb_1_s_s_ex",9,"attention_check",6,"cupboard","cupboard","True",8351.90000000037,221,"start_loc"
222,108,"9_fb_1_s_s_ex",9,"attention_check",7,"drawer","drawer","True",6579.89999999944,222,"end_loc"
224,184,"1_tb_1_e_e_im",1,"attention_check",6,"box","box","True",5822.40000000596,224,"start_loc"
225,184,"1_tb_1_e_e_im",1,"attention_check",7,"basket","basket","True",3670.80000001192,225,"end_loc"
227,165,"9_fb_1_s_e_ex",9,"attention_check",6,"cupboard","cupboard","True",7616.10000002384,227,"start_loc"
228,165,"9_fb_1_s_e_ex",9,"attention_check",7,"drawer","drawer","True",6828.09999999404,228,"end_loc"
230,159,"3_fb_1_e_e_im",3,"attention_check",6,"sink","sink","True",7606.79999995232,230,"start_loc"
231,159,"3_fb_1_e_e_im",3,"attention_check",7,"basket","basket","True",4374.70000004768,231,"end_loc"
233,150,"10_fb_1_e_e_im",10,"attention_check",6,"toolbox","toolbox","True",3797.30000000447,233,"start_loc"
234,150,"10_fb_1_e_e_im",10,"attention_check",7,"van","van","True",3781.70000000298,234,"end_loc"
236,266,"4_fb_1_e_s_ex",4,"attention_check",6,"shed","shed","True",3708,236,"start_loc"
237,266,"4_fb_1_e_s_ex",4,"attention_check",7,"garage","garage","True",2868,237,"end_loc"
239,142,"7_fb_1_s_e_im",7,"attention_check",6,"garage","garage","True",9344.5,239,"start_loc"
240,142,"7_fb_1_s_e_im",7,"attention_check",7,"fridge","fridge","True",4489,240,"end_loc"
242,193,"11_fb_1_s_s_ex",11,"attention_check",6,"suitcase","suitcase","True",16778.3999999762,242,"start_loc"
243,193,"11_fb_1_s_s_ex",11,"attention_check",7,"backpack","backpack","True",5625.20000004768,243,"end_loc"
245,170,"7_tb_1_e_s_im",7,"attention_check",6,"garage","Garage","True",7489.59999990463,245,"start_loc"
246,170,"7_tb_1_e_s_im",7,"attention_check",7,"fridge","Out","False",14686.6000001431,246,"end_loc"
248,275,"6_fb_1_s_s_im",6,"attention_check",6,"drawer","drawer","True",6274.2000002861,248,"start_loc"
249,275,"6_fb_1_s_s_im",6,"attention_check",7,"cabinet","drawer","False",12204.4000000954,249,"end_loc"
251,286,"12_tb_1_e_e_im",12,"attention_check",6,"stable","hut","False",5129.19999999925,251,"start_loc"
252,286,"12_tb_1_e_e_im",12,"attention_check",7,"hut","hut","True",4390.80000000075,252,"end_loc"
254,131,"4_tb_1_e_s_im",4,"attention_check",6,"shed","shed","True",11399.7999999523,254,"start_loc"
255,131,"4_tb_1_e_s_im",4,"attention_check",7,"garage","shed","False",4401.20000004768,255,"end_loc"
257,389,"2_fb_1_s_s_ex",2,"attention_check",6,"cupboard","end","False",3275.60000038147,257,"start_loc"
258,389,"2_fb_1_s_s_ex",2,"attention_check",7,"fridge","fine","False",3352.19999980927,258,"end_loc"
260,182,"4_tb_1_s_s_ex",4,"attention_check",6,"shed","shed","True",4811.30000000075,260,"start_loc"
261,182,"4_tb_1_s_s_ex",4,"attention_check",7,"garage","garage","True",5876.60000000149,261,"end_loc"
263,232,"1_tb_1_s_e_im",1,"attention_check",6,"box","box","True",4770.90000000596,263,"start_loc"
264,232,"1_tb_1_s_e_im",1,"attention_check",7,"basket","sean","False",11439,264,"end_loc"
266,226,"9_fb_1_s_e_im",9,"attention_check",6,"cupboard","table","False",11638.6000000238,266,"start_loc"
267,226,"9_fb_1_s_e_im",9,"attention_check",7,"drawer","drawer","True",6809.5,267,"end_loc"
269,160,"6_fb_1_s_e_ex",6,"attention_check",6,"drawer","drawer","True",8103.70000000298,269,"start_loc"
270,160,"6_fb_1_s_e_ex",6,"attention_check",7,"cabinet","cabinet","True",8715.79999999702,270,"end_loc"
272,257,"6_tb_1_s_e_im",6,"attention_check",6,"drawer","drawer","True",7909.30000019073,272,"start_loc"
273,257,"6_tb_1_s_e_im",6,"attention_check",7,"cabinet","cabinet","True",5287.5,273,"end_loc"
275,234,"9_fb_1_e_s_im",9,"attention_check",6,"cupboard","counter","False",9461,275,"start_loc"
276,234,"9_fb_1_e_s_im",9,"attention_check",7,"drawer","drawer","True",4827.5,276,"end_loc"
278,228,"5_fb_1_e_s_im",5,"attention_check",6,"hall","hall","True",6902,278,"start_loc"
279,228,"5_fb_1_e_s_im",5,"attention_check",7,"study","study","True",6351.40000000224,279,"end_loc"
281,174,"4_tb_1_e_e_im",4,"attention_check",6,"shed","shed","True",5967.69999998808,281,"start_loc"
282,174,"4_tb_1_e_e_im",4,"attention_check",7,"garage","garage","True",10555,282,"end_loc"
284,329,"4_fb_1_s_s_ex",4,"attention_check",6,"shed","shed","True",5316.60000014305,284,"start_loc"
285,329,"4_fb_1_s_s_ex",4,"attention_check",7,"garage","shed","False",8530.60000014305,285,"end_loc"
287,269,"12_fb_1_e_s_ex",12,"attention_check",6,"stable","Hut","False",6671,287,"start_loc"
288,269,"12_fb_1_e_s_ex",12,"attention_check",7,"hut","Stable","False",4821,288,"end_loc"
290,308,"2_fb_1_e_e_im",2,"attention_check",6,"cupboard","cupboard","True",6530.40000009537,290,"start_loc"
291,308,"2_fb_1_e_e_im",2,"attention_check",7,"fridge","fridge","True",5728,291,"end_loc"
293,306,"12_fb_1_e_s_im",12,"attention_check",6,"stable","yes","False",6078.29999995232,293,"start_loc"
294,306,"12_fb_1_e_s_im",12,"attention_check",7,"hut","yes","False",3544.39999997616,294,"end_loc"
296,209,"12_tb_1_s_e_ex",12,"attention_check",6,"stable","stable","True",31469.2999999821,296,"start_loc"
297,209,"12_tb_1_s_e_ex",12,"attention_check",7,"hut","hut","True",8664,297,"end_loc"
299,341,"11_fb_1_s_s_ex",11,"attention_check",6,"suitcase","suitcase","True",5856.70000000019,299,"start_loc"
300,341,"11_fb_1_s_s_ex",11,"attention_check",7,"backpack","backpack","True",3389,300,"end_loc"
302,297,"12_tb_1_s_e_im",12,"attention_check",6,"stable","barn","False",5910.39999985695,302,"start_loc"
303,297,"12_tb_1_s_e_im",12,"attention_check",7,"hut","barn","False",5877.59999990463,303,"end_loc"
305,180,"5_tb_1_e_s_ex",5,"attention_check",6,"hall","hall","True",12477.7999999523,305,"start_loc"
306,180,"5_tb_1_e_s_ex",5,"attention_check",7,"study","hall","False",19900,306,"end_loc"
308,196,"3_fb_1_e_s_im",3,"attention_check",6,"sink","sink","True",16717,308,"start_loc"
309,196,"3_fb_1_e_s_im",3,"attention_check",7,"basket","basket","True",9276.40000009537,309,"end_loc"
311,326,"12_fb_1_e_s_ex",12,"attention_check",6,"stable","stable","True",9448,311,"start_loc"
312,326,"12_fb_1_e_s_ex",12,"attention_check",7,"hut","hut","True",3688.70000001788,312,"end_loc"
314,351,"9_fb_1_e_e_im",9,"attention_check",6,"cupboard","drawer","False",7000,314,"start_loc"
315,351,"9_fb_1_e_e_im",9,"attention_check",7,"drawer","counter","False",6924,315,"end_loc"
317,138,"4_fb_1_e_s_ex",4,"attention_check",6,"shed","shed","True",6708.80000000075,317,"start_loc"
318,138,"4_fb_1_e_s_ex",4,"attention_check",7,"garage","garage","True",23275.1000000015,318,"end_loc"
320,155,"2_tb_1_s_s_im",2,"attention_check",6,"cupboard","cupboard","True",14734,320,"start_loc"
321,155,"2_tb_1_s_s_im",2,"attention_check",7,"fridge","fridge","True",10124.1000000015,321,"end_loc"
323,125,"9_tb_1_s_e_im",9,"attention_check",6,"cupboard","cupboard","True",8854.19999998808,323,"start_loc"
324,125,"9_tb_1_s_e_im",9,"attention_check",7,"drawer","drawer","True",13806.5999999642,324,"end_loc"
326,243,"4_fb_1_s_s_im",4,"attention_check",6,"shed","LEAG","False",18982,326,"start_loc"
327,243,"4_fb_1_s_s_im",4,"attention_check",7,"garage","LEAG","False",10623,327,"end_loc"
329,200,"6_fb_1_s_s_im",6,"attention_check",6,"drawer","drawer","True",8139.59999996424,329,"start_loc"
330,200,"6_fb_1_s_s_im",6,"attention_check",7,"cabinet","cabinet","True",5525.5,330,"end_loc"
332,366,"5_fb_1_s_e_im",5,"attention_check",6,"hall","hall","True",10179.8000000007,332,"start_loc"
333,366,"5_fb_1_s_e_im",5,"attention_check",7,"study","study","True",4010.30000000075,333,"end_loc"
335,169,"6_tb_1_s_e_ex",6,"attention_check",6,"drawer","drawer","True",11481.7000000477,335,"start_loc"
336,169,"6_tb_1_s_e_ex",6,"attention_check",7,"cabinet","cabinet","True",12141.8000000119,336,"end_loc"
338,112,"2_tb_1_s_e_ex",2,"attention_check",6,"cupboard","cupboard","True",9352.10000002384,338,"start_loc"
339,112,"2_tb_1_s_e_ex",2,"attention_check",7,"fridge","fridge","True",11259.9000000954,339,"end_loc"
341,315,"2_fb_1_s_s_im",2,"attention_check",6,"cupboard","cupboard","True",6136.10000002384,341,"start_loc"
342,315,"2_fb_1_s_s_im",2,"attention_check",7,"fridge","fridge","True",3714.69999998808,342,"end_loc"
344,173,"6_fb_1_s_e_im",6,"attention_check",6,"drawer","away","False",13483.3999999999,344,"start_loc"
345,173,"6_fb_1_s_e_im",6,"attention_check",7,"cabinet","cabinet","True",7478.39999999991,345,"end_loc"
347,249,"11_fb_1_s_e_im",11,"attention_check",6,"suitcase","backpack","False",19434.400000006,347,"start_loc"
348,249,"11_fb_1_s_e_im",11,"attention_check",7,"backpack","nicole","False",21188.599999994,348,"end_loc"
350,288,"2_tb_1_e_e_im",2,"attention_check",6,"cupboard","sandwich","False",13785.6000000238,350,"start_loc"
351,288,"2_tb_1_e_e_im",2,"attention_check",7,"fridge","sandwich","False",10264.6000000238,351,"end_loc"
353,255,"8_fb_1_e_e_im",8,"attention_check",6,"hall","hall","True",8684,353,"start_loc"
354,255,"8_fb_1_e_e_im",8,"attention_check",7,"bedroom","bedroom","True",10369.6999998093,354,"end_loc"
356,406,"12_fb_1_s_e_ex",12,"attention_check",6,"stable","stable","True",4364.09999999963,356,"start_loc"
357,406,"12_fb_1_s_e_ex",12,"attention_check",7,"hut","hut","True",2555,357,"end_loc"
359,317,"10_tb_1_e_s_im",10,"attention_check",6,"toolbox","toolbox","True",6202.79999995232,359,"start_loc"
360,317,"10_tb_1_e_s_im",10,"attention_check",7,"van","van","True",5602.39999997616,360,"end_loc"
362,137,"10_fb_1_s_e_ex",10,"attention_check",6,"toolbox","toolbox","True",15396.6999999881,362,"start_loc"
363,137,"10_fb_1_s_e_ex",10,"attention_check",7,"van","van","True",8719.5,363,"end_loc"
365,360,"4_fb_1_e_s_im",4,"attention_check",6,"shed","STORY","False",6102,365,"start_loc"
366,360,"4_fb_1_e_s_im",4,"attention_check",7,"garage","END","False",5556.89999961853,366,"end_loc"
368,187,"3_fb_1_e_e_ex",3,"attention_check",6,"sink","sink","True",8176.7000002861,368,"start_loc"
369,187,"3_fb_1_e_e_ex",3,"attention_check",7,"basket","laundry basket","False",10159,369,"end_loc"
371,238,"3_tb_1_s_e_im",3,"attention_check",6,"sink","sink","True",4964.29999995232,371,"start_loc"
372,238,"3_tb_1_s_e_im",3,"attention_check",7,"basket","basket","True",7331.5,372,"end_loc"
374,188,"2_fb_1_e_e_im",2,"attention_check",6,"cupboard","counter","False",8077.5,374,"start_loc"
375,188,"2_fb_1_e_e_im",2,"attention_check",7,"fridge","fridge","True",9268.09999999963,375,"end_loc"
377,332,"7_fb_1_e_e_im",7,"attention_check",6,"garage","kitchen","False",10599.5,377,"start_loc"
378,332,"7_fb_1_e_e_im",7,"attention_check",7,"fridge","fridge","True",12192.8000000715,378,"end_loc"
380,278,"7_tb_1_e_s_ex",7,"attention_check",6,"garage","garage","True",7552,380,"start_loc"
381,278,"7_tb_1_e_s_ex",7,"attention_check",7,"fridge","fridge","True",6284,381,"end_loc"
383,331,"5_fb_1_e_e_ex",5,"attention_check",6,"hall","hall","True",6084.70000000019,383,"start_loc"
384,331,"5_fb_1_e_e_ex",5,"attention_check",7,"study","hall","False",5956.70000000019,384,"end_loc"
386,415,"1_tb_1_e_e_ex",1,"attention_check",6,"box","box","True",26129.2999999523,386,"start_loc"
387,415,"1_tb_1_e_e_ex",1,"attention_check",7,"basket","basket","True",2033,387,"end_loc"
389,133,"8_tb_1_e_s_ex",8,"attention_check",6,"hall","WALL ","False",15647.5,389,"start_loc"
390,133,"8_tb_1_e_s_ex",8,"attention_check",7,"bedroom","HALL","False",9361.5,390,"end_loc"
392,311,"1_tb_1_s_s_ex",1,"attention_check",6,"box","box","True",6903.40000009537,392,"start_loc"
393,311,"1_tb_1_s_s_ex",1,"attention_check",7,"basket","basket","True",5769,393,"end_loc"
395,318,"5_tb_1_e_s_im",5,"attention_check",6,"hall","hall","True",5477.70000004768,395,"start_loc"
396,318,"5_tb_1_e_s_im",5,"attention_check",7,"study","bathroom","False",5095.89999997616,396,"end_loc"
398,215,"7_tb_1_e_e_im",7,"attention_check",6,"garage","store","False",12512.3999996185,398,"start_loc"
399,215,"7_tb_1_e_e_im",7,"attention_check",7,"fridge","nice","False",10808.8999996185,399,"end_loc"
401,179,"1_tb_1_s_s_ex",1,"attention_check",6,"box","box","True",9028.7999997139,401,"start_loc"
402,179,"1_tb_1_s_s_ex",1,"attention_check",7,"basket","basket","True",15076.5,402,"end_loc"
404,190,"8_tb_1_s_e_ex",8,"attention_check",6,"hall","song","False",16092.7999999523,404,"start_loc"
405,190,"8_tb_1_s_e_ex",8,"attention_check",7,"bedroom","1","False",5012.19999998808,405,"end_loc"
407,386,"1_tb_1_s_e_im",1,"attention_check",6,"box","box","True",5624,407,"start_loc"
408,386,"1_tb_1_s_e_im",1,"attention_check",7,"basket","basket","True",7896,408,"end_loc"
410,210,"4_fb_1_s_s_ex",4,"attention_check",6,"shed","shed","True",14348,410,"start_loc"
411,210,"4_fb_1_s_s_ex",4,"attention_check",7,"garage","garage","True",37834,411,"end_loc"
413,339,"2_tb_1_e_s_im",2,"attention_check",6,"cupboard","cupboard","True",8264.90000003576,413,"start_loc"
414,339,"2_tb_1_e_s_im",2,"attention_check",7,"fridge","fridge","True",4775.10000002384,414,"end_loc"
416,356,"11_fb_1_e_e_im",11,"attention_check",6,"suitcase","suitcase","True",16153.1999999993,416,"start_loc"
417,356,"11_fb_1_e_e_im",11,"attention_check",7,"backpack","backpack","True",6616.69999999925,417,"end_loc"
419,270,"9_tb_1_e_e_ex",9,"attention_check",6,"cupboard","counter","False",16015.3999999762,419,"start_loc"
420,270,"9_tb_1_e_e_ex",9,"attention_check",7,"drawer","cupboard","False",5510.5,420,"end_loc"
422,123,"8_tb_1_s_e_im",8,"attention_check",6,"hall","hall","True",14896.5,422,"start_loc"
423,123,"8_tb_1_s_e_im",8,"attention_check",7,"bedroom","bedroom","True",7847.69999998808,423,"end_loc"
425,126,"3_fb_1_e_s_ex",3,"attention_check",6,"sink","sink","True",14356.5,425,"start_loc"
426,126,"3_fb_1_e_s_ex",3,"attention_check",7,"basket","sink","False",16174.8999999762,426,"end_loc"
428,214,"11_fb_1_e_s_ex",11,"attention_check",6,"suitcase","suitcase","True",10618.3000000007,428,"start_loc"
429,214,"11_fb_1_e_s_ex",11,"attention_check",7,"backpack","backpack","True",8874,429,"end_loc"
431,146,"12_tb_1_e_s_ex",12,"attention_check",6,"stable","in the stall","False",65580,431,"start_loc"
432,146,"12_tb_1_e_s_ex",12,"attention_check",7,"hut","barn","False",27090,432,"end_loc"
434,503,"12_tb_1_s_e_im",12,"attention_check",6,"stable","horse","False",5401.40000000596,434,"start_loc"
435,503,"12_tb_1_s_e_im",12,"attention_check",7,"hut","horse","False",3888.80000001192,435,"end_loc"
437,250,"11_tb_1_s_e_im",11,"attention_check",6,"suitcase","HOME","False",77788.1000001431,437,"start_loc"
438,250,"11_tb_1_s_e_im",11,"attention_check",7,"backpack","BOOK","False",8150.19999980927,438,"end_loc"
440,201,"12_fb_1_e_s_im",12,"attention_check",6,"stable","stable","True",8439.40000000596,440,"start_loc"
441,201,"12_fb_1_e_s_im",12,"attention_check",7,"hut","hut","True",6479.29999999702,441,"end_loc"
443,411,"10_tb_1_s_e_im",10,"attention_check",6,"toolbox","toolbox","True",5101.90000000224,443,"start_loc"
444,411,"10_tb_1_s_e_im",10,"attention_check",7,"van","van","True",5846.70000000298,444,"end_loc"
446,309,"5_tb_1_s_e_im",5,"attention_check",6,"hall","hall","True",7815.70000000298,446,"start_loc"
447,309,"5_tb_1_s_e_im",5,"attention_check",7,"study","study","True",10385.799999997,447,"end_loc"
449,437,"12_tb_1_s_e_ex",12,"attention_check",6,"stable","stable","True",9961.40000000596,449,"start_loc"
450,437,"12_tb_1_s_e_ex",12,"attention_check",7,"hut","hut","True",9678.40000000596,450,"end_loc"
452,413,"9_fb_1_s_s_im",9,"attention_check",6,"cupboard","cupboard","True",13744.3999999762,452,"start_loc"
453,413,"9_fb_1_s_s_im",9,"attention_check",7,"drawer","cupboard","False",22344,453,"end_loc"
455,107,"2_tb_1_s_e_im",2,"attention_check",6,"cupboard","sandwich","False",17376,455,"start_loc"
456,107,"2_tb_1_s_e_im",2,"attention_check",7,"fridge","fridge","True",24365.5999999046,456,"end_loc"
458,377,"12_tb_1_s_s_ex",12,"attention_check",6,"stable","bath","False",7708,458,"start_loc"
459,377,"12_tb_1_s_s_ex",12,"attention_check",7,"hut","that day","False",10084,459,"end_loc"
461,300,"4_tb_1_e_s_ex",4,"attention_check",6,"shed","shed","True",8336.30000000075,461,"start_loc"
462,300,"4_tb_1_e_s_ex",4,"attention_check",7,"garage","garage","True",7064.80000000075,462,"end_loc"
464,283,"12_fb_1_e_e_ex",12,"attention_check",6,"stable","stable","True",29928,464,"start_loc"
465,283,"12_fb_1_e_e_ex",12,"attention_check",7,"hut","hut","True",5977.29999923706,465,"end_loc"
467,154,"11_tb_1_e_e_ex",11,"attention_check",6,"suitcase","suitcase","True",76674,467,"start_loc"
468,154,"11_tb_1_e_e_ex",11,"attention_check",7,"backpack","backpack","True",8356,468,"end_loc"
470,363,"4_tb_1_s_e_im",4,"attention_check",6,"shed","shed","True",6566.70000000298,470,"start_loc"
471,363,"4_tb_1_s_e_im",4,"attention_check",7,"garage","garage","True",5692.79999999702,471,"end_loc"
473,267,"1_fb_1_e_e_im",1,"attention_check",6,"box","box","True",5122,473,"start_loc"
474,267,"1_fb_1_e_e_im",1,"attention_check",7,"basket","basket","True",4266,474,"end_loc"
476,398,"4_tb_1_e_s_im",4,"attention_check",6,"shed","shed","True",11968.700000003,476,"start_loc"
477,398,"4_tb_1_e_s_im",4,"attention_check",7,"garage","garage","True",12709.3999999985,477,"end_loc"
479,372,"3_tb_1_s_s_ex",3,"attention_check",6,"sink","sink","True",7399.70000004768,479,"start_loc"
480,372,"3_tb_1_s_s_ex",3,"attention_check",7,"basket","basket","True",5687,480,"end_loc"
482,390,"8_tb_1_e_e_ex",8,"attention_check",6,"hall","none","False",13740,482,"start_loc"
483,390,"8_tb_1_e_e_ex",8,"attention_check",7,"bedroom","moral","False",14443,483,"end_loc"
485,181,"4_fb_1_s_s_im",4,"attention_check",6,"shed","shed","True",6908.79999995232,485,"start_loc"
486,181,"4_fb_1_s_s_im",4,"attention_check",7,"garage","garage","True",9254.5,486,"end_loc"
488,381,"7_tb_1_e_s_ex",7,"attention_check",6,"garage","garage","True",6775.90000000037,488,"start_loc"
489,381,"7_tb_1_e_s_ex",7,"attention_check",7,"fridge","refrigerator ","False",12904.8000000007,489,"end_loc"
491,147,"8_tb_1_s_e_ex",8,"attention_check",6,"hall","hall","True",12027.8000001907,491,"start_loc"
492,147,"8_tb_1_s_e_ex",8,"attention_check",7,"bedroom","bedroom","True",12960.1000001431,492,"end_loc"
494,482,"8_fb_1_e_e_im",8,"attention_check",6,"hall","hall","True",3801,494,"start_loc"
495,482,"8_fb_1_e_e_im",8,"attention_check",7,"bedroom","bedroom","True",3625,495,"end_loc"
497,466,"5_fb_1_s_e_im",5,"attention_check",6,"hall","hall","True",7336.40000000596,497,"start_loc"
498,466,"5_fb_1_s_e_im",5,"attention_check",7,"study","study","True",3978.30000001192,498,"end_loc"
500,262,"11_tb_1_e_s_ex",11,"attention_check",6,"suitcase","backpack","False",9171.20000004768,500,"start_loc"
501,262,"11_tb_1_e_s_ex",11,"attention_check",7,"backpack","suitcase","False",6391.79999995232,501,"end_loc"
503,161,"6_tb_1_e_s_ex",6,"attention_check",6,"drawer","drawer ","False",11302,503,"start_loc"
504,161,"6_tb_1_e_s_ex",6,"attention_check",7,"cabinet","cabinet","True",7842.69999999553,504,"end_loc"
506,371,"5_fb_1_e_e_im",5,"attention_check",6,"hall","hall","True",11677.8999999762,506,"start_loc"
507,371,"5_fb_1_e_e_im",5,"attention_check",7,"study","study","True",8499.89999997616,507,"end_loc"
509,224,"2_fb_1_s_s_ex",2,"attention_check",6,"cupboard","counter","False",9321.30000000075,509,"start_loc"
510,224,"2_fb_1_s_s_ex",2,"attention_check",7,"fridge","fridge","True",6834.19999999925,510,"end_loc"
512,460,"8_tb_1_s_e_im",8,"attention_check",6,"hall","Livingroom","False",19547.5,512,"start_loc"
513,460,"8_tb_1_s_e_im",8,"attention_check",7,"bedroom","bedroom","True",6638.10000002384,513,"end_loc"
515,139,"11_fb_1_s_e_ex",11,"attention_check",6,"suitcase","suitcase","True",21308,515,"start_loc"
516,139,"11_fb_1_s_e_ex",11,"attention_check",7,"backpack","suitcase","False",32722.1999999881,516,"end_loc"
518,294,"9_fb_1_s_s_ex",9,"attention_check",6,"cupboard","drawer","False",9688.29999995232,518,"start_loc"
519,294,"9_fb_1_s_s_ex",9,"attention_check",7,"drawer","her husbend","False",9039.89999997616,519,"end_loc"
521,408,"4_tb_1_e_s_ex",4,"attention_check",6,"shed","shed","True",4597.5,521,"start_loc"
522,408,"4_tb_1_e_s_ex",4,"attention_check",7,"garage","garage","True",5437.79999995232,522,"end_loc"
524,464,"9_tb_1_s_s_im",9,"attention_check",6,"cupboard","cupboard","True",6631.29999995232,524,"start_loc"
525,464,"9_tb_1_s_s_im",9,"attention_check",7,"drawer","drawer","True",9100.19999980927,525,"end_loc"
527,420,"12_fb_1_s_s_ex",12,"attention_check",6,"stable","good","False",9871.79999995232,527,"start_loc"
528,420,"12_fb_1_s_s_ex",12,"attention_check",7,"hut","lake","False",10017.7999999523,528,"end_loc"
530,298,"5_tb_1_s_e_ex",5,"attention_check",6,"hall","study","False",10381,530,"start_loc"
531,298,"5_tb_1_s_e_ex",5,"attention_check",7,"study","hall","False",6236,531,"end_loc"
533,292,"1_tb_1_s_s_im",1,"attention_check",6,"box","shelf","False",22051.3999999762,533,"start_loc"
534,292,"1_tb_1_s_s_im",1,"attention_check",7,"basket","library","False",3415.5,534,"end_loc"
536,312,"8_tb_1_e_s_im",8,"attention_check",6,"hall","hall","True",5534,536,"start_loc"
537,312,"8_tb_1_e_s_im",8,"attention_check",7,"bedroom","bedroom","True",5394,537,"end_loc"
539,379,"8_fb_1_e_s_ex",8,"attention_check",6,"hall","the hall","False",14916.2999999523,539,"start_loc"
540,379,"8_fb_1_e_s_ex",8,"attention_check",7,"bedroom","the bedroom","False",10010.4000000954,540,"end_loc"
542,346,"12_tb_1_s_e_im",12,"attention_check",6,"stable","nathing","False",23776.7999999523,542,"start_loc"
543,346,"12_tb_1_s_e_im",12,"attention_check",7,"hut","nathing","False",15412.6000001431,543,"end_loc"
545,328,"1_fb_1_s_e_ex",1,"attention_check",6,"box","BOX","True",12559,545,"start_loc"
546,328,"1_fb_1_s_e_ex",1,"attention_check",7,"basket","BASKET","True",7128,546,"end_loc"
548,404,"5_fb_1_e_s_im",5,"attention_check",6,"hall","beginning","False",19180,548,"start_loc"
549,404,"5_fb_1_e_s_im",5,"attention_check",7,"study","end","False",5150,549,"end_loc"
551,480,"1_fb_1_e_e_im",1,"attention_check",6,"box","box","True",6481.40000009537,551,"start_loc"
552,480,"1_fb_1_e_e_im",1,"attention_check",7,"basket","box","False",4676.10000002384,552,"end_loc"
554,211,"3_tb_1_s_e_ex",3,"attention_check",6,"sink","hall","False",26916,554,"start_loc"
555,211,"3_tb_1_s_e_ex",3,"attention_check",7,"basket","basket","True",9640,555,"end_loc"
557,439,"1_fb_1_e_e_ex",1,"attention_check",6,"box","as good.","False",11202.1999999881,557,"start_loc"
558,439,"1_fb_1_e_e_ex",1,"attention_check",7,"basket","last.","False",9149.09999996424,558,"end_loc"
560,301,"10_fb_1_s_s_ex",10,"attention_check",6,"toolbox","toolbox","True",10077.6999999881,560,"start_loc"
561,301,"10_fb_1_s_s_ex",10,"attention_check",7,"van","van","True",14737,561,"end_loc"
563,207,"10_fb_1_s_e_ex",10,"attention_check",6,"toolbox","tool Box","False",20396.9000000358,563,"start_loc"
564,207,"10_fb_1_s_e_ex",10,"attention_check",7,"van","At corner","False",25930.1999999881,564,"end_loc"
566,321,"3_tb_1_s_e_ex",3,"attention_check",6,"sink","sink","True",8013.90000000596,566,"start_loc"
567,321,"3_tb_1_s_e_ex",3,"attention_check",7,"basket","basket","True",8235.29999999702,567,"end_loc"
569,349,"4_tb_1_e_s_ex",4,"attention_check",6,"shed","shed","True",8526,569,"start_loc"
570,349,"4_tb_1_e_s_ex",4,"attention_check",7,"garage","garage","True",6157,570,"end_loc"
572,280,"9_fb_1_e_e_im",9,"attention_check",6,"cupboard","cupboard","True",9769.69999998808,572,"start_loc"
573,280,"9_fb_1_e_e_im",9,"attention_check",7,"drawer","drawer","True",5732.80000001192,573,"end_loc"
575,316,"7_fb_1_s_s_ex",7,"attention_check",6,"garage","garage","True",4363.59999990463,575,"start_loc"
576,316,"7_fb_1_s_s_ex",7,"attention_check",7,"fridge","cooler","False",5578.5,576,"end_loc"
578,450,"8_fb_1_e_e_im",8,"attention_check",6,"hall","hall","True",7507.79999999702,578,"start_loc"
579,450,"8_fb_1_e_e_im",8,"attention_check",7,"bedroom","bedroom","True",14733.3999999985,579,"end_loc"
581,305,"10_tb_1_e_e_im",10,"attention_check",6,"toolbox","toolbox","True",8592,581,"start_loc"
582,305,"10_tb_1_e_e_im",10,"attention_check",7,"van","van","True",3646,582,"end_loc"
584,417,"1_fb_1_s_e_ex",1,"attention_check",6,"box","table","False",9239.39999999851,584,"start_loc"
585,417,"1_fb_1_s_e_ex",1,"attention_check",7,"basket","box","False",3248.19999999925,585,"end_loc"
587,153,"8_tb_1_e_s_im",8,"attention_check",6,"hall","hall","True",13394.7999999523,587,"start_loc"
588,153,"8_tb_1_e_s_im",8,"attention_check",7,"bedroom","bedroom","True",7259.5,588,"end_loc"
590,560,"1_fb_1_e_s_ex",1,"attention_check",6,"box","box","True",4254,590,"start_loc"
591,560,"1_fb_1_e_s_ex",1,"attention_check",7,"basket","basket","True",5520,591,"end_loc"
593,383,"4_fb_1_s_e_ex",4,"attention_check",6,"shed","shed","True",4984.69999998808,593,"start_loc"
594,383,"4_fb_1_s_e_ex",4,"attention_check",7,"garage","garage","True",5057.5,594,"end_loc"
596,319,"3_fb_1_e_e_im",3,"attention_check",6,"sink","Cameron's","False",22350.6999999881,596,"start_loc"
597,319,"3_fb_1_e_e_im",3,"attention_check",7,"basket","End of Story T-Shirt.","False",46733.0999999642,597,"end_loc"
599,397,"1_tb_1_e_s_ex",1,"attention_check",6,"box","basket","False",9978.39999997616,599,"start_loc"
600,397,"1_tb_1_e_s_ex",1,"attention_check",7,"basket","box","False",9093.29999995232,600,"end_loc"
602,483,"3_tb_1_s_s_ex",3,"attention_check",6,"sink","washer","False",8902.20000004768,602,"start_loc"
603,483,"3_tb_1_s_s_ex",3,"attention_check",7,"basket","dryer","False",6108.60000002384,603,"end_loc"
605,456,"3_tb_1_s_s_im",3,"attention_check",6,"sink","sink","True",4994.5,605,"start_loc"
606,456,"3_tb_1_s_s_im",3,"attention_check",7,"basket","basket","True",6003.20000004768,606,"end_loc"
608,494,"1_tb_1_s_s_ex",1,"attention_check",6,"box","kitchen","False",7767,608,"start_loc"
609,494,"1_tb_1_s_s_ex",1,"attention_check",7,"basket","Sara","False",4494.09999999963,609,"end_loc"
611,511,"11_fb_1_e_s_im",11,"attention_check",6,"suitcase","suitcase","True",6648,611,"start_loc"
612,511,"11_fb_1_e_s_im",11,"attention_check",7,"backpack","backpack","True",4933,612,"end_loc"
614,245,"9_fb_1_s_s_im",9,"attention_check",6,"cupboard","ALAMARI","False",16379.2999999523,614,"start_loc"
615,245,"9_fb_1_s_s_im",9,"attention_check",7,"drawer","KITCHEN","False",13357.7999999523,615,"end_loc"
617,489,"5_fb_1_s_s_ex",5,"attention_check",6,"hall","hall","True",5840.09999999404,617,"start_loc"
618,489,"5_fb_1_s_s_ex",5,"attention_check",7,"study","study","True",5699.20000000298,618,"end_loc"
620,385,"9_fb_1_e_e_ex",9,"attention_check",6,"cupboard","DRAWER","False",17524,620,"start_loc"
621,385,"9_fb_1_e_e_ex",9,"attention_check",7,"drawer","DRAWER","True",10599,621,"end_loc"
623,369,"11_tb_1_s_s_ex",11,"attention_check",6,"suitcase","suitcase","True",6755.60000000149,623,"start_loc"
624,369,"11_tb_1_s_s_ex",11,"attention_check",7,"backpack","backpack","True",4850,624,"end_loc"
626,399,"8_fb_1_s_s_ex",8,"attention_check",6,"hall","hall","True",12433,626,"start_loc"
627,399,"8_fb_1_s_s_ex",8,"attention_check",7,"bedroom","bedroom","True",16057,627,"end_loc"
629,396,"3_fb_1_e_s_im",3,"attention_check",6,"sink","sink","True",16695,629,"start_loc"
630,396,"3_fb_1_e_s_im",3,"attention_check",7,"basket","basket","True",8212,630,"end_loc"
632,375,"1_fb_1_s_s_im",1,"attention_check",6,"box","good","False",8569,632,"start_loc"
633,375,"1_fb_1_s_s_im",1,"attention_check",7,"basket","good","False",8018,633,"end_loc"
635,477,"4_tb_1_e_e_im",4,"attention_check",6,"shed","in the garage","False",7200,635,"start_loc"
636,477,"4_tb_1_e_e_im",4,"attention_check",7,"garage","outside","False",5712,636,"end_loc"
638,355,"5_fb_1_s_s_im",5,"attention_check",6,"hall","HALL","True",12905,638,"start_loc"
639,355,"5_fb_1_s_s_im",5,"attention_check",7,"study","HALL","False",15992,639,"end_loc"
641,487,"3_fb_1_s_s_im",3,"attention_check",6,"sink","sink","True",6281.80000000075,641,"start_loc"
642,487,"3_fb_1_s_s_im",3,"attention_check",7,"basket","basket","True",5882.5,642,"end_loc"
644,353,"6_tb_1_s_e_im",6,"attention_check",6,"drawer","cabinet","False",6319.40000009537,644,"start_loc"
645,353,"6_tb_1_s_e_im",6,"attention_check",7,"cabinet","drawer","False",6870.59999990463,645,"end_loc"
647,523,"1_fb_1_s_s_ex",1,"attention_check",6,"box","box","True",8388.70000004768,647,"start_loc"
648,523,"1_fb_1_s_s_ex",1,"attention_check",7,"basket","box","False",7013.30000001192,648,"end_loc"
650,524,"3_fb_1_e_s_ex",3,"attention_check",6,"sink","sink","True",6438.19999980927,650,"start_loc"
651,524,"3_fb_1_e_s_ex",3,"attention_check",7,"basket","basket","True",5397.5,651,"end_loc"
653,388,"7_fb_1_e_e_im",7,"attention_check",6,"garage","garage","True",3604.80000000075,653,"start_loc"
654,388,"7_fb_1_e_e_im",7,"attention_check",7,"fridge","garage","False",8706.59999999776,654,"end_loc"
656,254,"2_tb_1_e_e_im",2,"attention_check",6,"cupboard","cupboard","True",10482.700000003,656,"start_loc"
657,254,"2_tb_1_e_e_im",2,"attention_check",7,"fridge","fridge","True",15499.5,657,"end_loc"
659,225,"3_tb_1_e_s_ex",3,"attention_check",6,"sink","sink","True",26300.5,659,"start_loc"
660,225,"3_tb_1_e_s_ex",3,"attention_check",7,"basket","basket","True",24239.4000000954,660,"end_loc"
662,518,"4_fb_1_e_s_im",4,"attention_check",6,"shed","shed","True",8691.79999995232,662,"start_loc"
663,518,"4_fb_1_e_s_im",4,"attention_check",7,"garage","garage","True",7426.39999997616,663,"end_loc"
665,449,"1_fb_1_s_s_ex",1,"attention_check",6,"box","box","True",9503.30000000031,665,"start_loc"
666,449,"1_fb_1_s_s_ex",1,"attention_check",7,"basket","basket","True",5192.60000000213,666,"end_loc"
668,419,"11_fb_1_s_e_im",11,"attention_check",6,"suitcase","suitcase","True",13350,668,"start_loc"
669,419,"11_fb_1_s_e_im",11,"attention_check",7,"backpack","backpack","True",13496,669,"end_loc"
671,403,"1_tb_1_e_s_ex",1,"attention_check",6,"box","home","False",12613,671,"start_loc"
672,403,"1_tb_1_e_s_ex",1,"attention_check",7,"basket","goes","False",9629,672,"end_loc"
674,569,"1_fb_1_s_e_im",1,"attention_check",6,"box","sean of story","False",9596,674,"start_loc"
675,569,"1_fb_1_s_e_im",1,"attention_check",7,"basket","book of story","False",9896,675,"end_loc"
677,575,"9_tb_1_e_e_im",9,"attention_check",6,"cupboard","cupboard","True",7690.59999996424,677,"start_loc"
678,575,"9_tb_1_e_e_im",9,"attention_check",7,"drawer","drawer","True",2902.79999995232,678,"end_loc"
680,516,"3_tb_1_s_s_im",3,"attention_check",6,"sink","sink","True",9577.79999999702,680,"start_loc"
681,516,"3_tb_1_s_s_im",3,"attention_check",7,"basket","basket","True",7355.60000000894,681,"end_loc"
683,335,"7_fb_1_s_e_ex",7,"attention_check",6,"garage","garage","True",8887,683,"start_loc"
684,335,"7_fb_1_s_e_ex",7,"attention_check",7,"fridge","fridge","True",6361.89999999106,684,"end_loc"
686,203,"7_fb_1_e_e_ex",7,"attention_check",6,"garage","fridge ","False",36871.7000007629,686,"start_loc"
687,203,"7_fb_1_e_e_ex",7,"attention_check",7,"fridge","garage ","False",24855.8000001907,687,"end_loc"
689,342,"4_tb_1_e_e_ex",4,"attention_check",6,"shed","shed","True",38320.400000006,689,"start_loc"
690,342,"4_tb_1_e_e_ex",4,"attention_check",7,"garage","garage","True",13491.400000006,690,"end_loc"
692,582,"7_fb_1_s_s_ex",7,"attention_check",6,"garage"," David and Marta go out to get some wine for  Then, Da  wine..","False",13992.3000000119,692,"start_loc"
693,582,"7_fb_1_s_s_ex",7,"attention_check",7,"fridge","Yes","False",3685.29999995232,693,"end_loc"
695,248,"12_fb_1_s_s_im",12,"attention_check",6,"stable","hall and bedroom","False",10100,695,"start_loc"
696,248,"12_fb_1_s_s_im",12,"attention_check",7,"hut","painting work","False",29224,696,"end_loc"
698,565,"8_tb_1_s_e_im",8,"attention_check",6,"hall","PAINTING","False",7734.80000007153,698,"start_loc"
699,565,"8_tb_1_s_e_im",8,"attention_check",7,"bedroom","WALL","False",6488.70000004768,699,"end_loc"
701,393,"11_tb_1_e_e_im",11,"attention_check",6,"suitcase","backpack","False",11425.099999994,701,"start_loc"
702,393,"11_tb_1_e_e_im",11,"attention_check",7,"backpack","backpack","True",9148.89999999106,702,"end_loc"
704,320,"11_tb_1_e_s_im",11,"attention_check",6,"suitcase","suitcase","True",18024,704,"start_loc"
705,320,"11_tb_1_e_s_im",11,"attention_check",7,"backpack","backpack","True",29775,705,"end_loc"
707,469,"4_tb_1_e_s_im",4,"attention_check",6,"shed","shed","True",4666.10000002384,707,"start_loc"
708,469,"4_tb_1_e_s_im",4,"attention_check",7,"garage","garage","True",5199.10000002384,708,"end_loc"
710,567,"8_fb_1_e_s_ex",8,"attention_check",6,"hall","bedroom","False",6306.90000000596,710,"start_loc"
711,567,"8_fb_1_e_s_ex",8,"attention_check",7,"bedroom","hall","False",3013.90000000596,711,"end_loc"
713,314,"10_fb_1_s_e_im",10,"attention_check",6,"toolbox","toolbox","True",83231,713,"start_loc"
714,314,"10_fb_1_s_e_im",10,"attention_check",7,"van","van","True",20259,714,"end_loc"
716,164,"9_fb_1_e_s_ex",9,"attention_check",6,"cupboard","Kitchen","False",30090.0999999642,716,"start_loc"
717,164,"9_fb_1_e_s_ex",9,"attention_check",7,"drawer","Husband","False",94649.5999999642,717,"end_loc"
719,135,"6_fb_1_e_s_im",6,"attention_check",6,"drawer","BACK IN THE CABINET INSTEAD OF THE DRAWER","False",107727.699999809,719,"start_loc"
720,135,"6_fb_1_e_s_im",6,"attention_check",7,"cabinet","TOGETHER TO DOCUMENT","False",67338.5999994278,720,"end_loc"
722,568,"3_tb_1_e_e_im",3,"attention_check",6,"sink","sink","True",9031.09999999963,722,"start_loc"
723,568,"3_tb_1_e_e_im",3,"attention_check",7,"basket","sink","False",2644,723,"end_loc"
725,426,"6_fb_1_e_e_im",6,"attention_check",6,"drawer","drawer","True",7984,725,"start_loc"
726,426,"6_fb_1_e_e_im",6,"attention_check",7,"cabinet","cabinet","True",5254,726,"end_loc"
728,520,"12_tb_1_s_e_ex",12,"attention_check",6,"stable","stable","True",6882,728,"start_loc"
729,520,"12_tb_1_s_e_ex",12,"attention_check",7,"hut","hut","True",15190,729,"end_loc"
731,247,"3_tb_1_e_e_im",3,"attention_check",6,"sink","sink","True",10808.9000005722,731,"start_loc"
732,247,"3_tb_1_e_e_im",3,"attention_check",7,"basket","basket","True",27136.9000005722,732,"end_loc"
734,577,"7_tb_1_s_e_im",7,"attention_check",6,"garage","garage","True",5526,734,"start_loc"
735,577,"7_tb_1_s_e_im",7,"attention_check",7,"fridge","fridge","True",7326,735,"end_loc"
737,553,"2_tb_1_e_s_ex",2,"attention_check",6,"cupboard","cabinet","False",20103.6000001431,737,"start_loc"
738,553,"2_tb_1_e_s_ex",2,"attention_check",7,"fridge","fridge","True",6518.5,738,"end_loc"
740,178,"6_tb_1_s_e_ex",6,"attention_check",6,"drawer","drawer","True",24322.5,740,"start_loc"
741,178,"6_tb_1_s_e_ex",6,"attention_check",7,"cabinet","cabinet","True",24745.0999999642,741,"end_loc"
743,171,"3_tb_1_e_e_ex",3,"attention_check",6,"sink","movie","False",22124,743,"start_loc"
744,171,"3_tb_1_e_e_ex",3,"attention_check",7,"basket","basket","True",36096,744,"end_loc"
746,429,"1_tb_1_s_e_ex",1,"attention_check",6,"box","basket","False",2918.80000019073,746,"start_loc"
747,429,"1_tb_1_s_e_ex",1,"attention_check",7,"basket","basket","True",2666.80000019073,747,"end_loc"
749,510,"1_fb_1_e_e_im",1,"attention_check",6,"box","basket","False",14303.9000000358,749,"start_loc"
750,510,"1_fb_1_e_e_im",1,"attention_check",7,"basket","Shawn wats to read a book","False",34059.9000000358,750,"end_loc"
752,357,"3_fb_1_s_s_im",3,"attention_check",6,"sink","sink","True",10913.6000000015,752,"start_loc"
753,357,"3_fb_1_s_s_im",3,"attention_check",7,"basket","basket","True",46999.6000000015,753,"end_loc"
755,534,"5_fb_1_s_s_im",5,"attention_check",6,"hall","hall","True",11923.3999999762,755,"start_loc"
756,534,"5_fb_1_s_s_im",5,"attention_check",7,"study","study","True",46223.1000000238,756,"end_loc"
758,258,"6_fb_1_s_s_ex",6,"attention_check",6,"drawer","drawer","True",40131,758,"start_loc"
759,258,"6_fb_1_s_s_ex",6,"attention_check",7,"cabinet","cabinet","True",27499,759,"end_loc"
761,338,"1_tb_1_e_e_im",1,"attention_check",6,"box","novel","False",19679.5,761,"start_loc"
762,338,"1_tb_1_e_e_im",1,"attention_check",7,"basket"," epilogue","False",21262.7999999523,762,"end_loc"
764,583,"12_tb_1_e_e_im",12,"attention_check",6,"stable","stable","True",6888.79999995232,764,"start_loc"
765,583,"12_tb_1_e_e_im",12,"attention_check",7,"hut","horse","False",9173,765,"end_loc"
767,509,"6_tb_1_s_s_im",6,"attention_check",6,"drawer","drawer","True",9722.30000001192,767,"start_loc"
768,509,"6_tb_1_s_s_im",6,"attention_check",7,"cabinet","drawer","False",31682.5,768,"end_loc"
770,593,"12_tb_1_e_e_im",12,"attention_check",6,"stable","stable","True",7653.20000000298,770,"start_loc"
771,593,"12_tb_1_e_e_im",12,"attention_check",7,"hut","stable","False",7085.79999999702,771,"end_loc"
773,601,"8_fb_1_e_s_im",8,"attention_check",6,"hall","hvk","False",5378.69999980927,773,"start_loc"
774,601,"8_fb_1_e_s_im",8,"attention_check",7,"bedroom","vhbjg","False",1857,774,"end_loc"
776,517,"10_fb_1_e_s_im",10,"attention_check",6,"toolbox","toolbox","True",8582,776,"start_loc"
777,517,"10_fb_1_e_s_im",10,"attention_check",7,"van","van","True",4536,777,"end_loc"
779,612,"11_tb_1_s_s_ex",11,"attention_check",6,"suitcase","Suitcase","True",4186.29999999702,779,"start_loc"
780,612,"11_tb_1_s_s_ex",11,"attention_check",7,"backpack","Backpack","True",4487.79999999702,780,"end_loc"
782,428,"8_fb_1_s_s_ex",8,"attention_check",6,"hall","In her home","False",37949,782,"start_loc"
783,428,"8_fb_1_s_s_ex",8,"attention_check",7,"bedroom","end ","False",17457,783,"end_loc"
785,608,"3_fb_1_s_s_ex",3,"attention_check",6,"sink","washer","False",3583.70000000112,785,"start_loc"
786,608,"3_fb_1_s_s_ex",3,"attention_check",7,"basket","sink","False",3554.90000000037,786,"end_loc"
788,474,"6_tb_1_s_e_im",6,"attention_check",6,"drawer","table","False",52236.5999999642,788,"start_loc"
789,474,"6_tb_1_s_e_im",6,"attention_check",7,"cabinet","table","False",38644.1999999881,789,"end_loc"
791,625,"1_fb_1_e_e_ex",1,"attention_check",6,"box","box","True",9382.79999999702,791,"start_loc"
792,625,"1_fb_1_e_e_ex",1,"attention_check",7,"basket","basket","True",2571.20000000298,792,"end_loc"
794,221,"9_fb_1_s_e_ex",9,"attention_check",6,"cupboard","cupboard","True",22498.4000000358,794,"start_loc"
795,221,"9_fb_1_s_e_ex",9,"attention_check",7,"drawer","drawer","True",13913.5,795,"end_loc"
797,622,"7_tb_1_e_s_im",7,"attention_check",6,"garage","garage","True",4851,797,"start_loc"
798,622,"7_tb_1_e_s_im",7,"attention_check",7,"fridge","garage","False",2979,798,"end_loc"
800,505,"1_tb_1_e_s_ex",1,"attention_check",6,"box","box","True",27187,800,"start_loc"
801,505,"1_tb_1_e_s_ex",1,"attention_check",7,"basket","basket","True",6953,801,"end_loc"
803,423,"5_tb_1_e_s_ex",5,"attention_check",6,"hall","hall","True",10729.799999997,803,"start_loc"
804,423,"5_tb_1_e_s_ex",5,"attention_check",7,"study","study","True",11506.5,804,"end_loc"
806,490,"10_fb_1_s_s_im",10,"attention_check",6,"toolbox","toolbox","True",9240.20000000298,806,"start_loc"
807,490,"10_fb_1_s_s_im",10,"attention_check",7,"van","van","True",6129.79999999702,807,"end_loc"
809,400,"2_fb_1_s_s_im",2,"attention_check",6,"cupboard","sandwitch","False",32997.2000000477,809,"start_loc"
810,400,"2_fb_1_s_s_im",2,"attention_check",7,"fridge","fridge","True",20605.7000000477,810,"end_loc"
812,493,"3_fb_1_s_e_ex",3,"attention_check",6,"sink","good","False",12761,812,"start_loc"
813,493,"3_fb_1_s_e_ex",3,"attention_check",7,"basket","life story","False",17985,813,"end_loc"
815,529,"7_tb_1_s_s_im",7,"attention_check",6,"garage","garage","True",15495.8000000119,815,"start_loc"
816,529,"7_tb_1_s_s_im",7,"attention_check",7,"fridge","outside","False",35533.3999999762,816,"end_loc"
818,573,"5_fb_1_e_e_ex",5,"attention_check",6,"hall","hall","True",8281.69999980927,818,"start_loc"
819,573,"5_fb_1_e_e_ex",5,"attention_check",7,"study","study","True",6478.29999995232,819,"end_loc"
821,481,"8_fb_1_s_s_ex",8,"attention_check",6,"hall","hall","True",6842.10000038147,821,"start_loc"
822,481,"8_fb_1_s_s_ex",8,"attention_check",7,"bedroom","bedroom","True",17634,822,"end_loc"
824,532,"10_fb_1_e_s_im",10,"attention_check",6,"toolbox","factories ","False",38751.7999999523,824,"start_loc"
825,532,"10_fb_1_e_s_im",10,"attention_check",7,"van","factories ","False",8288.10000014305,825,"end_loc"
827,571,"7_tb_1_s_e_ex",7,"attention_check",6,"garage","garage","True",5279.20000000298,827,"start_loc"
828,571,"7_tb_1_s_e_ex",7,"attention_check",7,"fridge","refrigerator","False",9250.39999999851,828,"end_loc"
830,591,"4_tb_1_s_s_im",4,"attention_check",6,"shed","shed","True",11551.200000003,830,"start_loc"
831,591,"4_tb_1_s_s_im",4,"attention_check",7,"garage","garage","True",20054.700000003,831,"end_loc"
833,558,"1_tb_1_s_e_im",1,"attention_check",6,"box","box","True",7417.5,833,"start_loc"
834,558,"1_tb_1_s_e_im",1,"attention_check",7,"basket","basket","True",7731,834,"end_loc"
836,508,"11_tb_1_s_e_ex",11,"attention_check",6,"suitcase","POCKET","False",16291.3000001907,836,"start_loc"
837,508,"11_tb_1_s_e_ex",11,"attention_check",7,"backpack","LOSS","False",17176.8000001907,837,"end_loc"
839,463,"4_fb_1_e_e_ex",4,"attention_check",6,"shed","good","False",18526,839,"start_loc"
840,463,"4_fb_1_e_e_ex",4,"attention_check",7,"garage","Winner","False",12051,840,"end_loc"
842,616,"8_tb_1_s_s_ex",8,"attention_check",6,"hall","GOOD","False",8641.09999990463,842,"start_loc"
843,616,"8_tb_1_s_s_ex",8,"attention_check",7,"bedroom","GOOD","False",6826.30000019073,843,"end_loc"
845,337,"6_tb_1_s_s_ex",6,"attention_check",6,"drawer","drawer","True",32287.2000000477,845,"start_loc"
846,337,"6_tb_1_s_s_ex",6,"attention_check",7,"cabinet","cabinet","True",46091.8999998569,846,"end_loc"
848,623,"3_fb_1_s_s_im",3,"attention_check",6,"sink","SINK","True",7959,848,"start_loc"
849,623,"3_fb_1_s_s_im",3,"attention_check",7,"basket","BASKET","True",6985,849,"end_loc"
851,620,"6_fb_1_e_s_im",6,"attention_check",6,"drawer","drawer","True",7134.7000002861,851,"start_loc"
852,620,"6_fb_1_e_s_im",6,"attention_check",7,"cabinet","cabinet","True",4143.2999997139,852,"end_loc"
854,541,"6_fb_1_e_e_ex",6,"attention_check",6,"drawer","home","False",11315,854,"start_loc"
855,541,"6_fb_1_e_e_ex",6,"attention_check",7,"cabinet","home","False",9002.5,855,"end_loc"
857,596,"3_fb_1_s_s_im",3,"attention_check",6,"sink","played","False",15281,857,"start_loc"
858,596,"3_fb_1_s_s_im",3,"attention_check",7,"basket","sn","False",13597,858,"end_loc"
860,668,"2_fb_1_s_e_im",2,"attention_check",6,"cupboard","cupboard","True",3296.09999999404,860,"start_loc"
861,668,"2_fb_1_s_e_im",2,"attention_check",7,"fridge","fridge","True",2570.10000002384,861,"end_loc"
863,581,"10_fb_1_s_s_ex",10,"attention_check",6,"toolbox","good","False",8149.79999995232,863,"start_loc"
864,581,"10_fb_1_s_s_ex",10,"attention_check",7,"van","nice","False",14366.1000000238,864,"end_loc"
866,358,"10_fb_1_e_s_im",10,"attention_check",6,"toolbox","toolbox","True",34552.0999999046,866,"start_loc"
867,358,"10_fb_1_e_s_im",10,"attention_check",7,"van","van","True",16887.2999999523,867,"end_loc"
869,513,"5_tb_1_s_s_im",5,"attention_check",6,"hall","hall","True",5984.60000002384,869,"start_loc"
870,513,"5_tb_1_s_s_im",5,"attention_check",7,"study","study","True",6454.30000001192,870,"end_loc"
872,354,"8_fb_1_s_e_ex",8,"attention_check",6,"hall","hall and bedroom","False",14508.1000001431,872,"start_loc"
873,354,"8_fb_1_s_e_ex",8,"attention_check",7,"bedroom","painting work","False",169377.299999952,873,"end_loc"
875,260,"5_tb_1_s_s_im",5,"attention_check",6,"hall","hall","True",21051.5,875,"start_loc"
876,260,"5_tb_1_s_s_im",5,"attention_check",7,"study","study","True",29207.6000000238,876,"end_loc"
878,619,"8_tb_1_e_e_im",8,"attention_check",6,"hall","hall","True",13770.700000003,878,"start_loc"
879,619,"8_tb_1_e_e_im",8,"attention_check",7,"bedroom","bedroom","True",8707.5,879,"end_loc"
881,212,"9_tb_1_e_e_im",9,"attention_check",6,"cupboard","cupboard","True",42188,881,"start_loc"
882,212,"9_tb_1_e_e_im",9,"attention_check",7,"drawer","drawer","True",35550.7000000477,882,"end_loc"
884,580,"9_fb_1_s_s_ex",9,"attention_check",6,"cupboard","cupboard","True",6862.09999990463,884,"start_loc"
885,580,"9_fb_1_s_s_ex",9,"attention_check",7,"drawer","drawer","True",18810.5,885,"end_loc"
887,537,"3_tb_1_e_s_im",3,"attention_check",6,"sink","sink","True",11144.8999996185,887,"start_loc"
888,537,"3_tb_1_e_s_im",3,"attention_check",7,"basket","basket","True",16551.5,888,"end_loc"
890,502,"2_fb_1_e_s_ex",2,"attention_check",6,"cupboard","sandwich","False",19692,890,"start_loc"
891,502,"2_fb_1_e_s_ex",2,"attention_check",7,"fridge"," decides to make another sandwich. ","False",24234,891,"end_loc"
893,376,"11_fb_1_e_e_im",11,"attention_check",6,"suitcase","suitcase","True",84686.3999998569,893,"start_loc"
894,376,"11_fb_1_e_e_im",11,"attention_check",7,"backpack","Nicole","False",32541.7000000477,894,"end_loc"
896,458,"7_tb_1_s_s_im",7,"attention_check",6,"garage","fridge","False",28060,896,"start_loc"
897,458,"7_tb_1_s_s_im",7,"attention_check",7,"fridge","home","False",17152,897,"end_loc"
899,676,"9_fb_1_s_e_im",9,"attention_check",6,"cupboard","Lisa is cooking dinner in the kitchen. She uses the grater and puts it away in the cupboard, then takes out the spatula from the drawer. She briefly leaves the kitchen, and while she is away, Robert moves the grater from the cupboard to the drawer. Lisa comes  ","False",7272.90000003576,899,"start_loc"
900,676,"9_fb_1_s_e_im",9,"attention_check",7,"drawer","Yes","False",2595.90000003576,900,"end_loc"
902,684,"4_fb_1_s_s_ex",4,"attention_check",6,"shed","garage","False",3325.30000001192,902,"start_loc"
903,684,"4_fb_1_s_s_ex",4,"attention_check",7,"garage","shed","False",2179,903,"end_loc"
905,611,"9_tb_1_e_s_im",9,"attention_check",6,"cupboard","uses grater","False",19092.7999997139,905,"start_loc"
906,611,"9_tb_1_e_s_im",9,"attention_check",7,"drawer","lisa realize","False",12829.0999999046,906,"end_loc"
908,230,"9_tb_1_s_s_im",9,"attention_check",6,"cupboard","cupboard","True",28337.5,908,"start_loc"
909,230,"9_tb_1_s_s_im",9,"attention_check",7,"drawer","drawer","True",22481.7000002861,909,"end_loc"
911,488,"11_fb_1_e_e_ex",11,"attention_check",6,"suitcase","suitcase","True",13061,911,"start_loc"
912,488,"11_fb_1_e_e_ex",11,"attention_check",7,"backpack","table","False",17641,912,"end_loc"
914,554,"2_fb_1_s_e_ex",2,"attention_check",6,"cupboard","like this","False",7619.60000038147,914,"start_loc"
915,554,"2_fb_1_s_e_ex",2,"attention_check",7,"fridge","i like participate","False",9203.80000019073,915,"end_loc"
917,617,"11_tb_1_s_s_ex",11,"attention_check",6,"suitcase","suitcase","True",12312,917,"start_loc"
918,617,"11_tb_1_s_s_ex",11,"attention_check",7,"backpack","backpack","True",15150.3999999762,918,"end_loc"
920,656,"11_tb_1_s_e_ex",11,"attention_check",6,"suitcase","yes","False",3857.60000002384,920,"start_loc"
921,656,"11_tb_1_s_e_ex",11,"attention_check",7,"backpack","mele","False",7351.30000001192,921,"end_loc"
923,624,"10_fb_1_s_s_ex",10,"attention_check",6,"toolbox","the toolbox","False",18423.599999994,923,"start_loc"
924,624,"10_fb_1_s_s_ex",10,"attention_check",7,"van","the van","False",16113,924,"end_loc"
926,630,"2_tb_1_e_s_ex",2,"attention_check",6,"cupboard","cupboard","True",5701,926,"start_loc"
927,630,"2_tb_1_e_s_ex",2,"attention_check",7,"fridge","fridge","True",3171,927,"end_loc"
929,347,"10_tb_1_s_s_im",10,"attention_check",6,"toolbox","toolbox","True",8440,929,"start_loc"
930,347,"10_tb_1_s_s_im",10,"attention_check",7,"van","van","True",6306,930,"end_loc"
932,598,"6_tb_1_s_e_ex",6,"attention_check",6,"drawer","drawer","True",6240.80000019073,932,"start_loc"
933,598,"6_tb_1_s_e_ex",6,"attention_check",7,"cabinet","cabinet","True",3248.5,933,"end_loc"
935,631,"11_fb_1_s_s_im",11,"attention_check",6,"suitcase","suitcase","True",7298.20000000298,935,"start_loc"
936,631,"11_fb_1_s_s_im",11,"attention_check",7,"backpack","backpack","True",7152.69999999553,936,"end_loc"
938,500,"10_fb_1_s_s_im",10,"attention_check",6,"toolbox","john","False",30560.1000000238,938,"start_loc"
939,500,"10_fb_1_s_s_im",10,"attention_check",7,"van","book","False",18496.3999999762,939,"end_loc"
941,206,"2_tb_1_e_e_ex",2,"attention_check",6,"cupboard","kitchen","False",65329,941,"start_loc"
942,206,"2_tb_1_e_e_ex",2,"attention_check",7,"fridge","kitchen","False",56663,942,"end_loc"
944,585,"9_tb_1_e_s_ex",9,"attention_check",6,"cupboard","Lisa is cooking dinner in the kitchen. She takes out a spatula from the drawer, then uses the grater and puts it away in the cupboard. She briefly leaves the kitchen, then comes back. She watches Robert move the grater to the drawer from the cupboard. Lisa realizes she needs to","False",4615.69999999553,944,"start_loc"
945,585,"9_tb_1_e_s_ex",9,"attention_check",7,"drawer","Lisa is cooking dinner in the kitchen. She takes out a spatula from the drawer, then uses the grater and puts it away in the cupboard. She briefly leaves the kitchen, then comes back. She watches Robert move the grater to the drawer from the cupboard. Lisa realizes she needs to","False",7115.29999999702,945,"end_loc"
947,614,"9_tb_1_s_e_ex",9,"attention_check",6,"cupboard","n/a","False",18989.5,947,"start_loc"
948,614,"9_tb_1_s_e_ex",9,"attention_check",7,"drawer","A8OLYIGGOPJP8","False",22326.6000003815,948,"end_loc"
950,501,"4_fb_1_e_e_ex",4,"attention_check",6,"shed","shed","True",54039,950,"start_loc"
951,501,"4_fb_1_e_e_ex",4,"attention_check",7,"garage","garage","True",31548.5999999642,951,"end_loc"
953,197,"7_fb_1_e_s_im",7,"attention_check",6,"garage","garage","True",42675.2999999523,953,"start_loc"
954,197,"7_fb_1_e_s_im",7,"attention_check",7,"fridge","garage","False",76872.5,954,"end_loc"
956,176,"12_fb_1_s_s_ex",12,"attention_check",6,"stable","stable","True",32219.5999999642,956,"start_loc"
957,176,"12_fb_1_s_s_ex",12,"attention_check",7,"hut","hut","True",42697.2000000477,957,"end_loc"
959,661,"1_tb_1_s_e_ex",1,"attention_check",6,"box","box","True",4538.5,959,"start_loc"
960,661,"1_tb_1_s_e_ex",1,"attention_check",7,"basket","basket","True",4399.80000000075,960,"end_loc"
962,282,"8_fb_1_e_s_im",8,"attention_check",6,"hall","bedroom","False",17507.9000000022,962,"start_loc"
963,282,"8_fb_1_e_s_im",8,"attention_check",7,"bedroom","hall","False",23943.5,963,"end_loc"
965,395,"5_fb_1_e_e_im",5,"attention_check",6,"hall","HALL","True",7380.30000001192,965,"start_loc"
966,395,"5_fb_1_e_e_im",5,"attention_check",7,"study","HALL","False",47503.6999999881,966,"end_loc"
968,703,"11_fb_1_e_e_ex",11,"attention_check",6,"suitcase","backpack","False",4212,968,"start_loc"
969,703,"11_fb_1_e_e_ex",11,"attention_check",7,"backpack","nicole","False",2566,969,"end_loc"
971,530,"10_tb_1_s_s_im",10,"attention_check",6,"toolbox","spread cement","False",17495,971,"start_loc"
972,530,"10_tb_1_s_s_im",10,"attention_check",7,"van","van instead of toolbox","False",48409,972,"end_loc"
974,696,"7_fb_1_e_e_ex",7,"attention_check",6,"garage","GOOD","False",5776.70000004768,974,"start_loc"
975,696,"7_fb_1_e_e_ex",7,"attention_check",7,"fridge","GOOD","False",5359.90000009537,975,"end_loc"
977,476,"3_fb_1_s_e_im",3,"attention_check",6,"sink","basket","False",37609,977,"start_loc"
978,476,"3_fb_1_s_e_im",3,"attention_check",7,"basket","wash stain off his shirt","False",80743,978,"end_loc"
980,199,"6_tb_1_e_s_ex",6,"attention_check",6,"drawer","documents away in a cabinet and the stapler away in a drawer","False",33408,980,"start_loc"
981,199,"6_tb_1_e_s_ex",6,"attention_check",7,"cabinet","drawer","False",18775,981,"end_loc"
983,628,"2_fb_1_e_e_ex",2,"attention_check",6,"cupboard","cupboard","True",10754.400000006,983,"start_loc"
984,628,"2_fb_1_e_e_ex",2,"attention_check",7,"fridge","refrigerator","False",7755,984,"end_loc"
986,645,"10_fb_1_s_e_im",10,"attention_check",6,"toolbox","toolbox","True",8653.39999999106,986,"start_loc"
987,645,"10_fb_1_s_e_im",10,"attention_check",7,"van","van","True",7212,987,"end_loc"
989,681,"6_fb_1_e_e_im",6,"attention_check",6,"drawer","BOOKS","False",7454.30000007153,989,"start_loc"
990,681,"6_fb_1_e_e_im",6,"attention_check",7,"cabinet","LAURA","False",12194.6000000238,990,"end_loc"
992,634,"11_tb_1_e_e_im",11,"attention_check",6,"suitcase","suitcase","True",8654.5,992,"start_loc"
993,634,"11_tb_1_e_e_im",11,"attention_check",7,"backpack","suitcase","False",4004.40000009537,993,"end_loc"
995,441,"1_fb_1_e_s_im",1,"attention_check",6,"box","shelf","False",16783.6999999285,995,"start_loc"
996,441,"1_fb_1_e_s_im",1,"attention_check",7,"basket","elsewhere","False",10492.6000000238,996,"end_loc"
998,710,"8_tb_1_e_s_im",8,"attention_check",6,"hall","dfhg","False",2003,998,"start_loc"
999,710,"8_tb_1_e_s_im",8,"attention_check",7,"bedroom","dgh","False",1688,999,"end_loc"
1001,454,"2_tb_1_e_e_im",2,"attention_check",6,"cupboard","SANDWICH","False",16871.2000007629,1001,"start_loc"
1002,454,"2_tb_1_e_e_im",2,"attention_check",7,"fridge","KITCHEN","False",28314.2999992371,1002,"end_loc"
1004,647,"5_tb_1_e_s_ex",5,"attention_check",6,"hall","hall","True",8858.39999999991,1004,"start_loc"
1005,647,"5_tb_1_e_s_ex",5,"attention_check",7,"study","study","True",10105.1000000001,1005,"end_loc"
1007,603,"3_tb_1_e_e_ex",3,"attention_check",6,"sink","While still in high school, she signed a modeling contract with Elite Model Management. She made her film debut at age 21 opposite Jim Carrey in the comedy The Mask","False",30570,1007,"start_loc"
1008,603,"3_tb_1_e_e_ex",3,"attention_check",7,"basket","YES","False",39559,1008,"end_loc"
1010,592,"6_tb_1_e_s_ex",6,"attention_check",6,"drawer","good","False",5149,1010,"start_loc"
1011,592,"6_tb_1_e_s_ex",6,"attention_check",7,"cabinet","nice","False",11671,1011,"end_loc"
1013,566,"9_tb_1_e_e_ex",9,"attention_check",6,"cupboard","Cupboard","True",10798,1013,"start_loc"
1014,566,"9_tb_1_e_e_ex",9,"attention_check",7,"drawer","Drawer","True",13207,1014,"end_loc"
1016,638,"4_tb_1_e_s_ex",4,"attention_check",6,"shed","field","False",4741.10000002384,1016,"start_loc"
1017,638,"4_tb_1_e_s_ex",4,"attention_check",7,"garage","garage","True",6375.5,1017,"end_loc"
1019,451,"9_tb_1_s_e_ex",9,"attention_check",6,"cupboard","GARAGE","False",35802,1019,"start_loc"
1020,451,"9_tb_1_s_e_ex",9,"attention_check",7,"drawer","LAST","False",35730,1020,"end_loc"
1022,718,"9_tb_1_s_e_ex",9,"attention_check",6,"cupboard","kitchen","False",2730.20000000298,1022,"start_loc"
1023,718,"9_tb_1_s_e_ex",9,"attention_check",7,"drawer","table","False",3706.5,1023,"end_loc"
1025,528,"9_fb_1_s_s_im",9,"attention_check",6,"cupboard","hpme","False",5622.39999985695,1025,"start_loc"
1026,528,"9_fb_1_s_s_im",9,"attention_check",7,"drawer","home","False",8333.20000004768,1026,"end_loc"
1028,550,"2_tb_1_e_s_ex",2,"attention_check",6,"cupboard","cupboard","True",4766.80000000075,1028,"start_loc"
1029,550,"2_tb_1_e_s_ex",2,"attention_check",7,"fridge","fridge","True",9360.89999999851,1029,"end_loc"
1031,685,"7_tb_1_s_e_ex",7,"attention_check",6,"garage","garage","True",4039.5,1031,"start_loc"
1032,685,"7_tb_1_s_e_ex",7,"attention_check",7,"fridge","fridge","True",4300.89999997616,1032,"end_loc"
1034,670,"12_fb_1_s_s_ex",12,"attention_check",6,"stable","character","False",10734,1034,"start_loc"
1035,670,"12_fb_1_s_s_ex",12,"attention_check",7,"hut","honest","False",5368,1035,"end_loc"
1037,688,"6_fb_1_s_s_ex",6,"attention_check",6,"drawer","drawer","True",2566.39999999851,1037,"start_loc"
1038,688,"6_fb_1_s_s_ex",6,"attention_check",7,"cabinet","drawer","False",4889.39999999851,1038,"end_loc"
1040,686,"6_tb_1_s_e_im",6,"attention_check",6,"drawer","drawer","True",13618,1040,"start_loc"
1041,686,"6_tb_1_s_e_im",6,"attention_check",7,"cabinet","cabinet","True",6582,1041,"end_loc"
1043,427,"9_fb_1_s_s_ex",9,"attention_check",6,"cupboard","cupboard","True",18048.8999999985,1043,"start_loc"
1044,427,"9_fb_1_s_s_ex",9,"attention_check",7,"drawer","drawer","True",12333.8999999985,1044,"end_loc"
1046,675,"1_tb_1_e_e_ex",1,"attention_check",6,"box","near library","False",14499,1046,"start_loc"
1047,675,"1_tb_1_e_e_ex",1,"attention_check",7,"basket","lake","False",7482,1047,"end_loc"
1049,712,"8_tb_1_s_s_ex",8,"attention_check",6,"hall","1","False",3001.89999997616,1049,"start_loc"
1050,712,"8_tb_1_s_s_ex",8,"attention_check",7,"bedroom","1","False",1828.39999997616,1050,"end_loc"
1052,418,"5_tb_1_e_e_ex",5,"attention_check",6,"hall","Hall","True",12150.6999999881,1052,"start_loc"
1053,418,"5_tb_1_e_e_ex",5,"attention_check",7,"study","study","True",48282.3000000119,1053,"end_loc"
1055,588,"3_fb_1_s_e_im",3,"attention_check",6,"sink","sink","True",17444,1055,"start_loc"
1056,588,"3_fb_1_s_e_im",3,"attention_check",7,"basket","room","False",12837,1056,"end_loc"
1058,644,"7_fb_1_e_e_ex",7,"attention_check",6,"garage","garage","True",24145.7000007629,1058,"start_loc"
1059,644,"7_fb_1_e_e_ex",7,"attention_check",7,"fridge","fridge","True",9712.89999961853,1059,"end_loc"
1061,680,"12_fb_1_s_e_im",12,"attention_check",6,"stable","BACKPACK","False",15116,1061,"start_loc"
1062,680,"12_fb_1_s_e_im",12,"attention_check",7,"hut","HUT","True",14114,1062,"end_loc"
1064,662,"4_fb_1_e_s_im",4,"attention_check",6,"shed","garage","False",7755,1064,"start_loc"
1065,662,"4_fb_1_e_s_im",4,"attention_check",7,"garage","garage","True",5045,1065,"end_loc"
1067,711,"4_tb_1_e_e_im",4,"attention_check",6,"shed","good","False",6120,1067,"start_loc"
1068,711,"4_tb_1_e_e_im",4,"attention_check",7,"garage","good","False",2639,1068,"end_loc"
1070,731,"1_tb_1_e_s_im",1,"attention_check",6,"box","grow","False",4131.30000114441,1070,"start_loc"
1071,731,"1_tb_1_e_s_im",1,"attention_check",7,"basket","end","False",3161.60000038147,1071,"end_loc"
1073,672,"4_tb_1_e_e_ex",4,"attention_check",6,"shed","yard","False",28583.2999999523,1073,"start_loc"
1074,672,"4_tb_1_e_e_ex",4,"attention_check",7,"garage","garage","True",10712.5999999046,1074,"end_loc"
1076,323,"10_fb_1_s_e_im",10,"attention_check",6,"toolbox","spread cement","False",68876.1000000238,1076,"start_loc"
1077,323,"10_fb_1_s_e_im",10,"attention_check",7,"van","van","True",32363.8999999762,1077,"end_loc"
1079,512,"4_fb_1_s_e_ex",4,"attention_check",6,"shed","hand","False",19528,1079,"start_loc"
1080,512,"4_fb_1_s_e_ex",4,"attention_check",7,"garage","end","False",28002,1080,"end_loc"
1082,607,"5_fb_1_s_s_ex",5,"attention_check",6,"hall","bag","False",8267,1082,"start_loc"
1083,607,"5_fb_1_s_s_ex",5,"attention_check",7,"study","bag","False",5720,1083,"end_loc"
1085,698,"10_fb_1_e_e_ex",10,"attention_check",6,"toolbox","he put the shovel","False",20644.6999999881,1085,"start_loc"
1086,698,"10_fb_1_e_e_ex",10,"attention_check",7,"van","john","False",6998.69999998808,1086,"end_loc"
1088,633,"4_tb_1_e_e_im",4,"attention_check",6,"shed","in the shed","False",8109.09999999404,1088,"start_loc"
1089,633,"4_tb_1_e_e_im",4,"attention_check",7,"garage","in the garage","False",6201.20000000298,1089,"end_loc"
1091,690,"10_tb_1_e_s_im",10,"attention_check",6,"toolbox","END","False",13428,1091,"start_loc"
1092,690,"10_tb_1_e_s_im",10,"attention_check",7,"van","JOHN","False",10393,1092,"end_loc"
1094,659,"11_tb_1_s_e_ex",11,"attention_check",6,"suitcase","suitcase","True",16480,1094,"start_loc"
1095,659,"11_tb_1_s_e_ex",11,"attention_check",7,"backpack","backpack","True",13298,1095,"end_loc"
1097,572,"2_fb_1_e_s_ex",2,"attention_check",6,"cupboard","cupboard","True",43987.8000000119,1097,"start_loc"
1098,572,"2_fb_1_e_s_ex",2,"attention_check",7,"fridge","fridge","True",22293.3000000119,1098,"end_loc"
1100,642,"5_fb_1_e_e_ex",5,"attention_check",6,"hall","hall","True",9586.60000000149,1100,"start_loc"
1101,642,"5_fb_1_e_e_ex",5,"attention_check",7,"study","study","True",11530.6000000015,1101,"end_loc"
1103,691,"2_tb_1_s_s_im",2,"attention_check",6,"cupboard","cupboard","True",7695.5,1103,"start_loc"
1104,691,"2_tb_1_s_s_im",2,"attention_check",7,"fridge","fridge","True",6199.5,1104,"end_loc"
1106,667,"5_fb_1_e_s_ex",5,"attention_check",6,"hall","hall","True",18232,1106,"start_loc"
1107,667,"5_fb_1_e_s_ex",5,"attention_check",7,"study","bathroom","False",13941,1107,"end_loc"
1109,364,"10_fb_1_s_s_im",10,"attention_check",6,"toolbox","toolbox","True",7967.20000000298,1109,"start_loc"
1110,364,"10_fb_1_s_s_im",10,"attention_check",7,"van","van","True",5868.20000000298,1110,"end_loc"
1112,657,"8_tb_1_s_s_im",8,"attention_check",6,"hall","painting","False",10451,1112,"start_loc"
1113,657,"8_tb_1_s_s_im",8,"attention_check",7,"bedroom","Sarah","False",10311.8000000119,1113,"end_loc"
1115,446,"10_tb_1_s_s_im",10,"attention_check",6,"toolbox","toolbox","True",8863.29999998212,1115,"start_loc"
1116,446,"10_tb_1_s_s_im",10,"attention_check",7,"van","van","True",29711.900000006,1116,"end_loc"
1118,745,"6_tb_1_e_e_ex",6,"attention_check",6,"drawer","drawer","True",6104,1118,"start_loc"
1119,745,"6_tb_1_e_e_ex",6,"attention_check",7,"cabinet","cabinet","True",3883,1119,"end_loc"
1121,327,"5_tb_1_e_s_im",5,"attention_check",6,"hall"," puts ","False",22839.1999999881,1121,"start_loc"
1122,327,"5_tb_1_e_s_im",5,"attention_check",7,"study","family home","False",27673.1999999881,1122,"end_loc"
1124,515,"7_fb_1_e_s_im",7,"attention_check",6,"garage","TABLE","False",27942.7000002861,1124,"start_loc"
1125,515,"7_fb_1_e_s_im",7,"attention_check",7,"fridge","LOSS","False",16533.1999998093,1125,"end_loc"
1127,660,"8_tb_1_e_e_ex",8,"attention_check",6,"hall","hall","True",19450.3999998569,1127,"start_loc"
1128,660,"8_tb_1_e_e_ex",8,"attention_check",7,"bedroom","bedroom","True",12424.5999999046,1128,"end_loc"
1130,410,"2_fb_1_s_s_im",2,"attention_check",6,"cupboard","cupboard","True",59807,1130,"start_loc"
1131,410,"2_fb_1_s_s_im",2,"attention_check",7,"fridge","sandwich","False",56401,1131,"end_loc"
1133,704,"3_fb_1_s_s_ex",3,"attention_check",6,"sink","sink","True",7361,1133,"start_loc"
1134,704,"3_fb_1_s_s_ex",3,"attention_check",7,"basket","basket","True",8288,1134,"end_loc"
1136,728,"12_tb_1_s_s_im",12,"attention_check",6,"stable","Hannah has just come back from a ride and is putting her horse away. She puts the saddle in the stable, then puts her backpack in the hut. Then she goes inside to have a bath. When, she finishes, she comes back. She watches Martin put the saddle in the hut instead of the stable. ","False",5511.39999997616,1136,"start_loc"
1137,728,"12_tb_1_s_s_im",12,"attention_check",7,"hut","Yes","False",2517.39999997616,1137,"end_loc"
1139,604,"4_tb_1_e_e_ex",4,"attention_check",6,"shed","garage","False",28850,1139,"start_loc"
1140,604,"4_tb_1_e_e_ex",4,"attention_check",7,"garage","paula going for work","False",27609.1999998093,1140,"end_loc"
1142,540,"2_tb_1_s_s_ex",2,"attention_check",6,"cupboard","fridge","False",6366,1142,"start_loc"
1143,540,"2_tb_1_s_s_ex",2,"attention_check",7,"fridge","cupboard","False",4957.40000000596,1143,"end_loc"
1145,587,"9_fb_1_s_e_im",9,"attention_check",6,"cupboard","Uses greater","False",17652.6000001431,1145,"start_loc"
1146,587,"9_fb_1_s_e_im",9,"attention_check",7,"drawer","realize lisa","False",4672.90000009537,1146,"end_loc"
1148,183,"7_fb_1_s_s_im",7,"attention_check",6,"garage","garage","True",6186.70000004768,1148,"start_loc"
1149,183,"7_fb_1_s_s_im",7,"attention_check",7,"fridge","fridge","True",5386,1149,"end_loc"
1151,694,"5_tb_1_e_e_im",5,"attention_check",6,"hall","hall","True",8294.20000004768,1151,"start_loc"
1152,694,"5_tb_1_e_e_im",5,"attention_check",7,"study","study","True",6238.09999990463,1152,"end_loc"
1154,713,"9_tb_1_e_s_im",9,"attention_check",6,"cupboard","the cupboard","False",9056.10000000149,1154,"start_loc"
1155,713,"9_tb_1_e_s_im",9,"attention_check",7,"drawer","the drawer","False",6232.39999999851,1155,"end_loc"
1157,757,"8_tb_1_e_e_ex",8,"attention_check",6,"hall","good","False",5964,1157,"start_loc"
1158,757,"8_tb_1_e_e_ex",8,"attention_check",7,"bedroom","good","False",5146,1158,"end_loc"
1160,653,"3_tb_1_e_e_im",3,"attention_check",6,"sink","washer","False",14490,1160,"start_loc"
1161,653,"3_tb_1_e_e_im",3,"attention_check",7,"basket","sink","False",6564.5,1161,"end_loc"
1163,702,"8_fb_1_s_s_im",8,"attention_check",6,"hall"," epitome of racist colonial","False",24430.5999999642,1163,"start_loc"
1164,702,"8_fb_1_s_s_im",8,"attention_check",7,"bedroom","completion","False",15643.8999999762,1164,"end_loc"
1169,677,"4_tb_1_s_e_ex",4,"attention_check",6,"shed","shed","True",36971,1169,"start_loc"
1170,677,"4_tb_1_s_e_ex",4,"attention_check",7,"garage","play catch again","False",24805,1170,"end_loc"
1172,707,"9_fb_1_s_s_im",9,"attention_check",6,"cupboard","cupboard","True",12350.8000000715,1172,"start_loc"
1173,707,"9_fb_1_s_s_im",9,"attention_check",7,"drawer","drawer","True",4967.60000002384,1173,"end_loc"
1175,683,"2_fb_1_e_s_im",2,"attention_check",6,"cupboard","cupboard","True",9646,1175,"start_loc"
1176,683,"2_fb_1_e_s_im",2,"attention_check",7,"fridge","fridge","True",7223,1176,"end_loc"
1178,727,"3_tb_1_s_e_im",3,"attention_check",6,"sink","sink","True",4335.89999985695,1178,"start_loc"
1179,727,"3_tb_1_s_e_im",3,"attention_check",7,"basket","basket","True",4039.5,1179,"end_loc"
1181,687,"7_fb_1_s_s_ex",7,"attention_check",6,"garage","drink wine","False",12453,1181,"start_loc"
1182,687,"7_fb_1_s_s_ex",7,"attention_check",7,"fridge","fridge","True",70273,1182,"end_loc"
1184,739,"4_tb_1_s_s_im",4,"attention_check",6,"shed","good","False",8019.89999985695,1184,"start_loc"
1185,739,"4_tb_1_s_s_im",4,"attention_check",7,"garage","good","False",4690.10000014305,1185,"end_loc"
1187,772,"6_fb_1_e_s_ex",6,"attention_check",6,"drawer","grow","False",3981.89999961853,1187,"start_loc"
1188,772,"6_fb_1_e_s_ex",6,"attention_check",7,"cabinet","end","False",2693.19999980927,1188,"end_loc"
1190,747,"5_fb_1_s_s_im",5,"attention_check",6,"hall","hall","True",5079.80000000447,1190,"start_loc"
1191,747,"5_fb_1_s_s_im",5,"attention_check",7,"study","study","True",6184.60000000149,1191,"end_loc"
1193,716,"1_tb_1_s_e_ex",1,"attention_check",6,"box","1","False",1115.29999995232,1193,"start_loc"
1194,716,"1_tb_1_s_e_ex",1,"attention_check",7,"basket","1","False",782,1194,"end_loc"
1196,555,"6_tb_1_e_e_im",6,"attention_check",6,"drawer","drawer","True",55388,1196,"start_loc"
1197,555,"6_tb_1_e_e_im",6,"attention_check",7,"cabinet","cabinet","True",79517,1197,"end_loc"
1199,720,"4_tb_1_s_e_im",4,"attention_check",6,"shed","shed","True",11982.3999999985,1199,"start_loc"
1200,720,"4_tb_1_s_e_im",4,"attention_check",7,"garage","shed","False",5870.89999999851,1200,"end_loc"
1202,629,"7_tb_1_e_e_ex",7,"attention_check",6,"garage","garage","True",8179.5,1202,"start_loc"
1203,629,"7_tb_1_e_e_ex",7,"attention_check",7,"fridge","fridge","True",8160.5,1203,"end_loc"
1205,729,"6_tb_1_e_e_im",6,"attention_check",6,"drawer","DOCUMENT","False",8407.79999995232,1205,"start_loc"
1206,729,"6_tb_1_e_e_im",6,"attention_check",7,"cabinet","DRAWER","False",6031.5,1206,"end_loc"
1208,218,"7_fb_1_s_e_im",7,"attention_check",6,"garage","garage","True",101990,1208,"start_loc"
1209,218,"7_fb_1_s_e_im",7,"attention_check",7,"fridge","cooled","False",69158,1209,"end_loc"
1211,678,"10_fb_1_e_e_ex",10,"attention_check",6,"toolbox","toolbox","True",38841.0999984741,1211,"start_loc"
1212,678,"10_fb_1_e_e_ex",10,"attention_check",7,"van","van","True",5706.5,1212,"end_loc"
1214,738,"11_tb_1_e_s_im",11,"attention_check",6,"suitcase","hand","False",10792.4000000954,1214,"start_loc"
1215,738,"11_tb_1_e_s_im",11,"attention_check",7,"backpack","backpack","True",4566.80000019073,1215,"end_loc"
1217,700,"7_tb_1_e_s_im",7,"attention_check",6,"garage","PARTY","False",28981.8999999762,1217,"start_loc"
1218,700,"7_tb_1_e_s_im",7,"attention_check",7,"fridge","HOME","False",11732.8000000119,1218,"end_loc"
1220,753,"5_tb_1_e_s_im",5,"attention_check",6,"hall","Hall","True",6234.59999990463,1220,"start_loc"
1221,753,"5_tb_1_e_s_im",5,"attention_check",7,"study","Study hall","False",26587.5,1221,"end_loc"
1223,719,"6_fb_1_s_e_im",6,"attention_check",6,"drawer","DRAWER","True",23540.9000000358,1223,"start_loc"
1224,719,"6_fb_1_s_e_im",6,"attention_check",7,"cabinet","CABINET","True",10250.7000000477,1224,"end_loc"
1226,732,"11_fb_1_s_e_ex",11,"attention_check",6,"suitcase","suitcase","True",17813,1226,"start_loc"
1227,732,"11_fb_1_s_e_ex",11,"attention_check",7,"backpack","table","False",12340,1227,"end_loc"
1229,546,"5_fb_1_e_s_im",5,"attention_check",6,"hall","hall","True",15735.8000001907,1229,"start_loc"
1230,546,"5_fb_1_e_s_im",5,"attention_check",7,"study","Seana","False",18804.2000002861,1230,"end_loc"
1232,669,"1_tb_1_e_s_ex",1,"attention_check",6,"box","BOX","True",12623,1232,"start_loc"
1233,669,"1_tb_1_e_s_ex",1,"attention_check",7,"basket","BASKET","True",36438,1233,"end_loc"
1235,769,"1_tb_1_s_e_ex",1,"attention_check",6,"box","library","False",22234.5999999046,1235,"start_loc"
1236,769,"1_tb_1_s_e_ex",1,"attention_check",7,"basket","library","False",4624.79999995232,1236,"end_loc"
1238,303,"8_tb_1_s_e_im",8,"attention_check",6,"hall","bedroom.","False",71074,1238,"start_loc"
1239,303,"8_tb_1_s_e_im",8,"attention_check",7,"bedroom","Sarash","False",13594,1239,"end_loc"
1241,748,"12_tb_1_e_s_im",12,"attention_check",6,"stable","saddle ","False",10350,1241,"start_loc"
1242,748,"12_tb_1_e_s_im",12,"attention_check",7,"hut","sad","False",8934,1242,"end_loc"
1244,574,"8_tb_1_s_e_im",8,"attention_check",6,"hall","hall","True",20303.5,1244,"start_loc"
1245,574,"8_tb_1_s_e_im",8,"attention_check",7,"bedroom","bedroom","True",15496.1999999955,1245,"end_loc"
1247,559,"6_fb_1_e_s_ex",6,"attention_check",6,"drawer","drawer","True",4052.5,1247,"start_loc"
1248,559,"6_fb_1_e_s_ex",6,"attention_check",7,"cabinet","staple","False",16846.6999999881,1248,"end_loc"
1250,736,"10_tb_1_e_e_ex",10,"attention_check",6,"toolbox","NO","False",3603,1250,"start_loc"
1251,736,"10_tb_1_e_e_ex",10,"attention_check",7,"van","MO","False",2735,1251,"end_loc"
1253,551,"11_fb_1_e_s_ex",11,"attention_check",6,"suitcase","suitcase","True",7406.89999997616,1253,"start_loc"
1254,551,"11_fb_1_e_s_ex",11,"attention_check",7,"backpack","backpack","True",8722.5,1254,"end_loc"
1256,743,"6_fb_1_s_s_ex",6,"attention_check",6,"drawer","drawer","True",7775.69999999925,1256,"start_loc"
1257,743,"6_fb_1_s_s_ex",6,"attention_check",7,"cabinet","cabinet","True",5680.30000000075,1257,"end_loc"
1259,734,"3_tb_1_e_s_im",3,"attention_check",6,"sink","Sink","True",10006.5,1259,"start_loc"
1260,734,"3_tb_1_e_s_im",3,"attention_check",7,"basket","Stain","False",9732.70000004768,1260,"end_loc"
1262,755,"5_tb_1_s_s_ex",5,"attention_check",6,"hall","may be","False",10145.8000001907,1262,"start_loc"
1263,755,"5_tb_1_s_s_ex",5,"attention_check",7,"study","not a sure","False",10337.0999999046,1263,"end_loc"
1265,640,"10_tb_1_e_s_ex",10,"attention_check",6,"toolbox","toolbox","True",32787,1265,"start_loc"
1266,640,"10_tb_1_e_s_ex",10,"attention_check",7,"van","van","True",17979,1266,"end_loc"
1268,756,"10_tb_1_s_e_ex",10,"attention_check",6,"toolbox","toolbox","True",7048.90000000224,1268,"start_loc"
1269,756,"10_tb_1_s_e_ex",10,"attention_check",7,"van","outside","False",10601.5,1269,"end_loc"
1271,768,"10_fb_1_s_s_ex",10,"attention_check",6,"toolbox","toolbox","True",7673,1271,"start_loc"
1272,768,"10_fb_1_s_s_ex",10,"attention_check",7,"van","van","True",4879,1272,"end_loc"
1274,759,"1_fb_1_s_e_ex",1,"attention_check",6,"box","Box","True",6004,1274,"start_loc"
1275,759,"1_fb_1_s_e_ex",1,"attention_check",7,"basket","Basket","True",8227,1275,"end_loc"
1277,486,"10_fb_1_s_s_im",10,"attention_check",6,"toolbox","garage","False",18860.7000000477,1277,"start_loc"
1278,486,"10_fb_1_s_s_im",10,"attention_check",7,"van","last","False",42701.6000000238,1278,"end_loc"
1280,519,"5_tb_1_e_e_ex",5,"attention_check",6,"hall","good","False",7961.29999995232,1280,"start_loc"
1281,519,"5_tb_1_e_e_ex",5,"attention_check",7,"study","good","False",81452.1999998093,1281,"end_loc"
1283,740,"1_fb_1_s_e_im",1,"attention_check",6,"box","pocket","False",6575.69999980927,1283,"start_loc"
1284,740,"1_fb_1_s_e_im",1,"attention_check",7,"basket","loss","False",5204.69999980927,1284,"end_loc"
1286,780,"2_fb_1_s_e_im",2,"attention_check",6,"cupboard","kitchen","False",8833,1286,"start_loc"
1287,780,"2_fb_1_s_e_im",2,"attention_check",7,"fridge","kitchen","False",6425,1287,"end_loc"
1289,639,"3_tb_1_s_e_ex",3,"attention_check",6,"sink","basket","False",12733.3999999762,1289,"start_loc"
1290,639,"3_tb_1_s_e_ex",3,"attention_check",7,"basket","basket","True",5217.90000003576,1290,"end_loc"
1292,717,"6_tb_1_s_e_im",6,"attention_check",6,"drawer","drawer","True",14706,1292,"start_loc"
1293,717,"6_tb_1_s_e_im",6,"attention_check",7,"cabinet","cabinet","True",10223.1000000238,1293,"end_loc"
1295,754,"5_fb_1_s_e_ex",5,"attention_check",6,"hall","hall ","False",24801,1295,"start_loc"
1296,754,"5_fb_1_s_e_ex",5,"attention_check",7,"study","hall ","False",23432,1296,"end_loc"
1298,782,"10_tb_1_s_e_ex",10,"attention_check",6,"toolbox","finsed","False",6337,1298,"start_loc"
1299,782,"10_tb_1_s_e_ex",10,"attention_check",7,"van","volume","False",5449,1299,"end_loc"
1301,802,"6_tb_1_e_e_ex",6,"attention_check",6,"drawer","dh","False",1878.80000007153,1301,"start_loc"
1302,802,"6_tb_1_e_e_ex",6,"attention_check",7,"cabinet","dh","False",1414.69999992847,1302,"end_loc"
1304,741,"4_fb_1_e_e_im",4,"attention_check",6,"shed","shed","True",5807.30000001192,1304,"start_loc"
1305,741,"4_fb_1_e_e_im",4,"attention_check",7,"garage","garage","True",5662,1305,"end_loc"
1307,810,"12_tb_1_e_s_ex",12,"attention_check",6,"stable","ear","False",1990.90000152588,1307,"start_loc"
1308,810,"12_tb_1_e_s_ex",12,"attention_check",7,"hut","end","False",2076.39999961853,1308,"end_loc"
1310,784,"11_fb_1_s_s_im",11,"attention_check",6,"suitcase","end","False",5301,1310,"start_loc"
1311,784,"11_fb_1_s_s_im",11,"attention_check",7,"backpack","good","False",11952,1311,"end_loc"
1313,742,"2_fb_1_s_e_ex",2,"attention_check",6,"cupboard","slap","False",10505.8000001907,1313,"start_loc"
1314,742,"2_fb_1_s_e_ex",2,"attention_check",7,"fridge","mother ","False",24135,1314,"end_loc"
1316,370,"10_fb_1_e_s_ex",10,"attention_check",6,"toolbox","toolbox","True",21660.8000001907,1316,"start_loc"
1317,370,"10_fb_1_e_s_ex",10,"attention_check",7,"van","van","True",38822,1317,"end_loc"
1319,654,"12_tb_1_e_e_ex",12,"attention_check",6,"stable","box","False",34439,1319,"start_loc"
1320,654,"12_tb_1_e_e_ex",12,"attention_check",7,"hut","cottage","False",33021,1320,"end_loc"
1322,405,"9_tb_1_e_s_ex",9,"attention_check",6,"cupboard","cupboard","True",39074.6999988556,1322,"start_loc"
1323,405,"9_tb_1_e_s_ex",9,"attention_check",7,"drawer","drawer","True",36710.6000003815,1323,"end_loc"
1325,805,"12_tb_1_s_s_ex",12,"attention_check",6,"stable","moral ","False",5517.5,1325,"start_loc"
1326,805,"12_tb_1_s_s_ex",12,"attention_check",7,"hut","end","False",3038.39999997616,1326,"end_loc"
1328,749,"2_fb_1_s_s_ex",2,"attention_check",6,"cupboard","Freezer","False",4345.60000000894,1328,"start_loc"
1329,749,"2_fb_1_s_s_ex",2,"attention_check",7,"fridge","Freezer","False",4954.79999999702,1329,"end_loc"
1331,602,"4_fb_1_e_e_ex",4,"attention_check",6,"shed","play game","False",93241,1331,"start_loc"
1332,602,"4_fb_1_e_e_ex",4,"attention_check",7,"garage","ground","False",13354,1332,"end_loc"
1334,735,"7_tb_1_s_e_ex",7,"attention_check",6,"garage","Samuel ","False",26482.2999999523,1334,"start_loc"
1335,735,"7_tb_1_s_e_ex",7,"attention_check",7,"fridge","China ","False",27420.9000000954,1335,"end_loc"
1337,767,"2_fb_1_s_s_im",2,"attention_check",6,"cupboard","room","False",9496.59999990463,1337,"start_loc"
1338,767,"2_fb_1_s_s_im",2,"attention_check",7,"fridge","kitchen","False",8302.39999985695,1338,"end_loc"
1340,813,"8_tb_1_e_s_ex",8,"attention_check",6,"hall","bedroom","False",7116.5,1340,"start_loc"
1341,813,"8_tb_1_e_s_ex",8,"attention_check",7,"bedroom","hall","False",4357,1341,"end_loc"
1343,746,"3_fb_1_s_s_im",3,"attention_check",6,"sink","trhtr","False",3063.09999990463,1343,"start_loc"
1344,746,"3_fb_1_s_s_im",3,"attention_check",7,"basket","hgbngfb","False",1950.60000014305,1344,"end_loc"
1346,544,"6_tb_1_e_s_im",6,"attention_check",6,"drawer","DRAWER","True",52464,1346,"start_loc"
1347,544,"6_tb_1_e_s_im",6,"attention_check",7,"cabinet","TOGETHER","False",43367,1347,"end_loc"
1349,777,"6_fb_1_e_s_im",6,"attention_check",6,"drawer","drawer","True",8958.40000009537,1349,"start_loc"
1350,777,"6_fb_1_e_s_im",6,"attention_check",7,"cabinet","drawer","False",6609.09999990463,1350,"end_loc"
1352,786,"8_tb_1_s_e_ex",8,"attention_check",6,"hall","hall","True",3406.60000002384,1352,"start_loc"
1353,786,"8_tb_1_s_e_ex",8,"attention_check",7,"bedroom","bedroom","True",3744,1353,"end_loc"
1355,809,"5_fb_1_s_s_im",5,"attention_check",6,"hall","hall","True",5370.19999980927,1355,"start_loc"
1356,809,"5_fb_1_s_s_im",5,"attention_check",7,"study","study","True",3915.30000019073,1356,"end_loc"
1358,797,"3_fb_1_e_s_ex",3,"attention_check",6,"sink","sink","True",7041.5,1358,"start_loc"
1359,797,"3_fb_1_e_s_ex",3,"attention_check",7,"basket","basket","True",5354.40000000037,1359,"end_loc"
1361,820,"11_tb_1_s_e_ex",11,"attention_check",6,"suitcase","suitcase","True",5828.20000004768,1361,"start_loc"
1362,820,"11_tb_1_s_e_ex",11,"attention_check",7,"backpack","backpack","True",3179.60000002384,1362,"end_loc"
1364,752,"7_tb_1_s_s_im",7,"attention_check",6,"garage","fridge","False",17031,1364,"start_loc"
1365,752,"7_tb_1_s_s_im",7,"attention_check",7,"fridge","drink wine","False",26260,1365,"end_loc"
1367,635,"2_fb_1_s_s_ex",2,"attention_check",6,"cupboard","CUPBOARD","True",10294,1367,"start_loc"
1368,635,"2_fb_1_s_s_ex",2,"attention_check",7,"fridge","CUPBOARD","False",18674.8999998569,1368,"end_loc"
1370,495,"4_fb_1_e_e_ex",4,"attention_check",6,"shed","passage","False",151495.600000143,1370,"start_loc"
1371,495,"4_fb_1_e_e_ex",4,"attention_check",7,"garage","continuation of the story","False",222821.900000095,1371,"end_loc"
1373,800,"12_tb_1_s_e_im",12,"attention_check",6,"stable","stable","True",8756.20000004768,1373,"start_loc"
1374,800,"12_tb_1_s_e_im",12,"attention_check",7,"hut","hut","True",4697.30000007153,1374,"end_loc"
1376,792,"9_tb_1_e_e_ex",9,"attention_check",6,"cupboard","cupboard","True",11594,1376,"start_loc"
1377,792,"9_tb_1_e_e_ex",9,"attention_check",7,"drawer","drawer","True",6124,1377,"end_loc"
1379,765,"5_fb_1_s_s_ex",5,"attention_check",6,"hall","Hall","True",34720,1379,"start_loc"
1380,765,"5_fb_1_s_s_ex",5,"attention_check",7,"study","Study","True",14071,1380,"end_loc"
1382,491,"10_tb_1_e_s_im",10,"attention_check",6,"toolbox","van","False",17433,1382,"start_loc"
1383,491,"10_tb_1_e_s_im",10,"attention_check",7,"van","van","True",11179,1383,"end_loc"
1385,794,"5_fb_1_e_e_ex",5,"attention_check",6,"hall","hall","True",7135.90000009537,1385,"start_loc"
1386,794,"5_fb_1_e_e_ex",5,"attention_check",7,"study","study","True",7261,1386,"end_loc"
1388,770,"7_tb_1_s_e_im",7,"attention_check",6,"garage","party","False",36986.3000001907,1388,"start_loc"
1389,770,"7_tb_1_s_e_im",7,"attention_check",7,"fridge","out","False",56241.3999998569,1389,"end_loc"
1391,799,"4_fb_1_e_e_im",4,"attention_check",6,"shed","the shed","False",10074.2999999523,1391,"start_loc"
1392,799,"4_fb_1_e_e_im",4,"attention_check",7,"garage","the garage","False",4763.79999995232,1392,"end_loc"
1394,783,"1_fb_1_s_e_im",1,"attention_check",6,"box","library","False",27946.2000000477,1394,"start_loc"
1395,783,"1_fb_1_s_e_im",1,"attention_check",7,"basket","lake","False",14474.5,1395,"end_loc"
1397,689,"10_tb_1_s_e_ex",10,"attention_check",6,"toolbox","cement","False",21021,1397,"start_loc"
1398,689,"10_tb_1_s_e_ex",10,"attention_check",7,"van","van","True",28678,1398,"end_loc"
1400,812,"10_tb_1_s_s_ex",10,"attention_check",6,"toolbox","the toolbox","False",3916.69999998808,1400,"start_loc"
1401,812,"10_tb_1_s_s_ex",10,"attention_check",7,"van","in the van","False",2653.89999997616,1401,"end_loc"
1403,818,"12_tb_1_s_s_im",12,"attention_check",6,"stable","hut","False",7211.19999998808,1403,"start_loc"
1404,818,"12_tb_1_s_s_im",12,"attention_check",7,"hut","table","False",5159.19999998808,1404,"end_loc"
1406,803,"11_fb_1_e_e_im",11,"attention_check",6,"suitcase","sitting ","False",25401,1406,"start_loc"
1407,803,"11_fb_1_e_e_im",11,"attention_check",7,"backpack","ticket one more time","False",32878,1407,"end_loc"
1409,843,"12_tb_1_s_s_im",12,"attention_check",6,"stable","hut","False",6370.70000004768,1409,"start_loc"
1410,843,"12_tb_1_s_s_im",12,"attention_check",7,"hut","stable","False",6688.60000002384,1410,"end_loc"
1412,819,"7_tb_1_s_s_ex",7,"attention_check",6,"garage","fridge from the garage","False",35022,1412,"start_loc"
1413,819,"7_tb_1_s_s_ex",7,"attention_check",7,"fridge","home","False",13769,1413,"end_loc"
1415,726,"7_fb_1_e_s_ex",7,"attention_check",6,"garage","party","False",22619.1000003815,1415,"start_loc"
1416,726,"7_fb_1_e_s_ex",7,"attention_check",7,"fridge","home","False",6411.80000019073,1416,"end_loc"
1418,561,"11_tb_1_e_s_ex",11,"attention_check",6,"suitcase","i don't know","False",20312.3999996185,1418,"start_loc"
1419,561,"11_tb_1_e_s_ex",11,"attention_check",7,"backpack","no","False",5859,1419,"end_loc"
1421,837,"2_tb_1_e_e_ex",2,"attention_check",6,"cupboard","cupboard","True",19627.700000003,1421,"start_loc"
1422,837,"2_tb_1_e_e_ex",2,"attention_check",7,"fridge","fridge","True",9542.20000000298,1422,"end_loc"
1424,835,"10_tb_1_e_e_im",10,"attention_check",6,"toolbox","van","False",12069.5,1424,"start_loc"
1425,835,"10_tb_1_e_e_im",10,"attention_check",7,"van","van","True",5676.60000002384,1425,"end_loc"
1427,613,"7_tb_1_e_e_im",7,"attention_check",6,"garage","fridge ","False",5392.40000009537,1427,"start_loc"
1428,613,"7_tb_1_e_e_im",7,"attention_check",7,"fridge","fridge","True",4904.29999995232,1428,"end_loc"
1430,825,"6_tb_1_e_e_im",6,"attention_check",6,"drawer","drawer","True",4610,1430,"start_loc"
1431,825,"6_tb_1_e_e_im",6,"attention_check",7,"cabinet","cabinet","True",6922,1431,"end_loc"
1433,845,"2_fb_1_s_s_ex",2,"attention_check",6,"cupboard","cupboard","True",6860,1433,"start_loc"
1434,845,"2_fb_1_s_s_ex",2,"attention_check",7,"fridge","fridge","True",6669.10000002384,1434,"end_loc"
1436,730,"8_tb_1_e_e_im",8,"attention_check",6,"hall","hall","True",9394,1436,"start_loc"
1437,730,"8_tb_1_e_e_im",8,"attention_check",7,"bedroom","bedroom","True",19757,1437,"end_loc"
1439,855,"2_tb_1_s_e_im",2,"attention_check",6,"cupboard","cupboard","True",6061.80000001192,1439,"start_loc"
1440,855,"2_tb_1_s_e_im",2,"attention_check",7,"fridge","fridge","True",10098.0999999642,1440,"end_loc"
1442,830,"11_fb_1_e_s_im",11,"attention_check",6,"suitcase","backpack","False",6395,1442,"start_loc"
1443,830,"11_fb_1_e_s_im",11,"attention_check",7,"backpack","suitcase","False",5381,1443,"end_loc"
1445,867,"8_tb_1_s_e_ex",8,"attention_check",6,"hall","hall","True",4675,1445,"start_loc"
1446,867,"8_tb_1_s_e_ex",8,"attention_check",7,"bedroom","bedroom","True",5485,1446,"end_loc"
1448,834,"8_tb_1_e_e_ex",8,"attention_check",6,"hall","Passage","False",49205.5,1448,"start_loc"
1449,834,"8_tb_1_e_e_ex",8,"attention_check",7,"bedroom","bedroom","True",35333.8000001907,1449,"end_loc"
1451,579,"3_tb_1_s_e_ex",3,"attention_check",6,"sink","TABLE","False",111162.300000191,1451,"start_loc"
1452,579,"3_tb_1_s_e_ex",3,"attention_check",7,"basket","I DONT NO","False",13050,1452,"end_loc"
1454,872,"9_tb_1_s_s_im",9,"attention_check",6,"cupboard","table","False",5947.39999985695,1454,"start_loc"
1455,872,"9_tb_1_s_s_im",9,"attention_check",7,"drawer","table","False",7302,1455,"end_loc"
1457,859,"1_tb_1_e_e_im",1,"attention_check",6,"box","stepped","False",3899,1457,"start_loc"
1458,859,"1_tb_1_e_e_im",1,"attention_check",7,"basket","good","False",11125.7000000477,1458,"end_loc"
1460,880,"10_fb_1_s_e_ex",10,"attention_check",6,"toolbox","toolbox","True",5911,1460,"start_loc"
1461,880,"10_fb_1_s_e_ex",10,"attention_check",7,"van","van","True",3063,1461,"end_loc"
1463,821,"1_fb_1_e_s_ex",1,"attention_check",6,"box","book","False",38072,1463,"start_loc"
1464,821,"1_fb_1_e_s_ex",1,"attention_check",7,"basket","basket","True",16905,1464,"end_loc"
1466,881,"3_fb_1_e_s_ex",3,"attention_check",6,"sink","Sink","True",10991,1466,"start_loc"
1467,881,"3_fb_1_e_s_ex",3,"attention_check",7,"basket","Basket","True",7167.5,1467,"end_loc"
1469,864,"7_fb_1_s_e_ex",7,"attention_check",6,"garage","garage","True",7640.59999990463,1469,"start_loc"
1470,864,"7_fb_1_s_e_ex",7,"attention_check",7,"fridge","fridge","True",6608.90000009537,1470,"end_loc"
1472,839,"6_tb_1_e_e_ex",6,"attention_check",6,"drawer","drawer.","False",5132.80000001192,1472,"start_loc"
1473,839,"6_tb_1_e_e_ex",6,"attention_check",7,"cabinet","cabinet.","False",3559.89999997616,1473,"end_loc"
1475,836,"3_fb_1_e_s_im",3,"attention_check",6,"sink","bed","False",20479.0999999996,1475,"start_loc"
1476,836,"3_fb_1_e_s_im",3,"attention_check",7,"basket","washed","False",23475.7999999998,1476,"end_loc"
1478,887,"3_tb_1_e_e_ex",3,"attention_check",6,"sink","sink","True",5946,1478,"start_loc"
1479,887,"3_tb_1_e_e_ex",3,"attention_check",7,"basket","basket","True",4414,1479,"end_loc"
1481,824,"4_tb_1_e_s_im",4,"attention_check",6,"shed","shed","True",39312,1481,"start_loc"
1482,824,"4_tb_1_e_s_im",4,"attention_check",7,"garage","play catch again","False",19758,1482,"end_loc"
1484,863,"7_tb_1_s_s_im",7,"attention_check",6,"garage","garage","True",8602.0999994278,1484,"start_loc"
1485,863,"7_tb_1_s_s_im",7,"attention_check",7,"fridge","fridge","True",8695.79999923706,1485,"end_loc"
1487,899,"10_tb_1_s_e_ex",10,"attention_check",6,"toolbox","building","False",14863,1487,"start_loc"
1488,899,"10_tb_1_s_e_ex",10,"attention_check",7,"van","site","False",14747,1488,"end_loc"
1490,714,"2_fb_1_e_s_ex",2,"attention_check",6,"cupboard","cupboard","True",7686,1490,"start_loc"
1491,714,"2_fb_1_e_s_ex",2,"attention_check",7,"fridge","fridge","True",13520,1491,"end_loc"
1493,856,"5_fb_1_e_s_im",5,"attention_check",6,"hall","hall","True",6488.20000004768,1493,"start_loc"
1494,856,"5_fb_1_e_s_im",5,"attention_check",7,"study","study","True",7608.69999998808,1494,"end_loc"
1496,791,"9_fb_1_e_s_im",9,"attention_check",6,"cupboard","closet","False",76335.200000003,1496,"start_loc"
1497,791,"9_fb_1_e_s_im",9,"attention_check",7,"drawer","in the closet drawer","False",18301.3999999911,1497,"end_loc"
1499,838,"7_fb_1_s_s_im",7,"attention_check",6,"garage","garage","True",6188.09999999404,1499,"start_loc"
1500,838,"7_fb_1_s_s_im",7,"attention_check",7,"fridge","out","False",5091,1500,"end_loc"
1502,882,"4_fb_1_s_s_im",4,"attention_check",6,"shed","play","False",8897.30000019073,1502,"start_loc"
1503,882,"4_fb_1_s_s_im",4,"attention_check",7,"garage","win","False",9655.29999995232,1503,"end_loc"
1505,902,"11_tb_1_s_e_ex",11,"attention_check",6,"suitcase","suitcase","True",17954.9000000954,1505,"start_loc"
1506,902,"11_tb_1_s_e_ex",11,"attention_check",7,"backpack","backpack","True",8792.09999990463,1506,"end_loc"
1508,848,"5_tb_1_e_e_im",5,"attention_check",6,"hall","study","False",5268,1508,"start_loc"
1509,848,"5_tb_1_e_e_im",5,"attention_check",7,"study","hall","False",4258,1509,"end_loc"
1511,924,"5_tb_1_e_s_im",5,"attention_check",6,"hall","hall","True",3622.69999992847,1511,"start_loc"
1512,924,"5_tb_1_e_s_im",5,"attention_check",7,"study","study","True",3407.89999997616,1512,"end_loc"
1514,868,"8_tb_1_s_e_im",8,"attention_check",6,"hall","hall","True",6642.5,1514,"start_loc"
1515,868,"8_tb_1_s_e_im",8,"attention_check",7,"bedroom","bedroom","True",6064,1515,"end_loc"
1517,858,"1_tb_1_s_s_im",1,"attention_check",6,"box","is","False",9496,1517,"start_loc"
1518,858,"1_tb_1_s_s_im",1,"attention_check",7,"basket","to","False",6332,1518,"end_loc"
1520,850,"3_tb_1_e_s_ex",3,"attention_check",6,"sink","sink","True",4600.80000019073,1520,"start_loc"
1521,850,"3_tb_1_e_s_ex",3,"attention_check",7,"basket","basket","True",5156.30000019073,1521,"end_loc"
1523,857,"4_fb_1_e_s_im",4,"attention_check",6,"shed","The shead","False",28459,1523,"start_loc"
1524,857,"4_fb_1_e_s_im",4,"attention_check",7,"garage","The garage","False",6489,1524,"end_loc"
1526,886,"5_fb_1_s_s_ex",5,"attention_check",6,"hall","hallway","False",6903.69999998808,1526,"start_loc"
1527,886,"5_fb_1_s_s_ex",5,"attention_check",7,"study","study","True",5501,1527,"end_loc"
1529,901,"2_tb_1_s_e_ex",2,"attention_check",6,"cupboard","cupboard","True",6204.59999999404,1529,"start_loc"
1530,901,"2_tb_1_s_e_ex",2,"attention_check",7,"fridge","fridge","True",10123.900000006,1530,"end_loc"
1532,844,"9_tb_1_s_e_ex",9,"attention_check",6,"cupboard","cupboard","True",16089.8000001907,1532,"start_loc"
1533,844,"9_tb_1_s_e_ex",9,"attention_check",7,"drawer","drawer","True",12193.7999992371,1533,"end_loc"
1535,923,"6_fb_1_e_s_ex",6,"attention_check",6,"drawer","drawer","True",5640.90000000596,1535,"start_loc"
1536,923,"6_fb_1_e_s_ex",6,"attention_check",7,"cabinet","shelf","False",7326.30000001192,1536,"end_loc"
1538,927,"9_tb_1_e_s_im",9,"attention_check",6,"cupboard","1","False",2694,1538,"start_loc"
1539,927,"9_tb_1_e_s_im",9,"attention_check",7,"drawer","1","False",6822.20000004768,1539,"end_loc"
1541,909,"12_tb_1_e_s_ex",12,"attention_check",6,"stable","OK","False",5174,1541,"start_loc"
1542,909,"12_tb_1_e_s_ex",12,"attention_check",7,"hut","OK","False",3711.20000004768,1542,"end_loc"
1544,921,"3_tb_1_s_s_ex",3,"attention_check",6,"sink","sink","True",3906.10000002384,1544,"start_loc"
1545,921,"3_tb_1_s_s_ex",3,"attention_check",7,"basket","basket","True",2453.30000001192,1545,"end_loc"
1547,931,"11_tb_1_e_s_ex",11,"attention_check",6,"suitcase","suitcase","True",7349.80000007153,1547,"start_loc"
1548,931,"11_tb_1_e_s_ex",11,"attention_check",7,"backpack","backpack","True",6862.5,1548,"end_loc"
1550,915,"12_tb_1_e_s_ex",12,"attention_check",6,"stable","Hut","False",12879.4000000954,1550,"start_loc"
1551,915,"12_tb_1_e_s_ex",12,"attention_check",7,"hut","Stablet","False",10067.6999998093,1551,"end_loc"
1553,862,"6_tb_1_e_e_ex",6,"attention_check",6,"drawer","drawer","True",8867,1553,"start_loc"
1554,862,"6_tb_1_e_e_ex",6,"attention_check",7,"cabinet","drawer","False",9118.60000038147,1554,"end_loc"
1556,898,"2_fb_1_e_s_ex",2,"attention_check",6,"cupboard","cupboard","True",15032.799999997,1556,"start_loc"
1557,898,"2_fb_1_e_s_ex",2,"attention_check",7,"fridge","fridge","True",6448.60000000149,1557,"end_loc"
1559,919,"5_tb_1_s_e_im",5,"attention_check",6,"hall","room","False",10425,1559,"start_loc"
1560,919,"5_tb_1_s_e_im",5,"attention_check",7,"study","hall","False",9088,1560,"end_loc"
1562,841,"12_fb_1_s_e_im",12,"attention_check",6,"stable","stable","True",14190,1562,"start_loc"
1563,841,"12_fb_1_s_e_im",12,"attention_check",7,"hut","hut","True",5324,1563,"end_loc"
1565,861,"2_tb_1_s_s_im",2,"attention_check",6,"cupboard","cupboard","True",29979,1565,"start_loc"
1566,861,"2_tb_1_s_s_im",2,"attention_check",7,"fridge","fridge","True",34388,1566,"end_loc"
1568,939,"8_tb_1_e_s_im",8,"attention_check",6,"hall","bedroom","False",7225,1568,"start_loc"
1569,939,"8_tb_1_e_s_im",8,"attention_check",7,"bedroom","hall","False",3329,1569,"end_loc"
1571,840,"12_tb_1_e_s_im",12,"attention_check",6,"stable","stable","True",16961.0999999978,1571,"start_loc"
1572,840,"12_tb_1_e_s_im",12,"attention_check",7,"hut","hut","True",6149.39999999851,1572,"end_loc"
1574,911,"9_tb_1_e_e_ex",9,"attention_check",6,"cupboard","cupboard","True",8000.19999980927,1574,"start_loc"
1575,911,"9_tb_1_e_e_ex",9,"attention_check",7,"drawer","drawer","True",3864.79999995232,1575,"end_loc"
1577,885,"10_tb_1_e_e_ex",10,"attention_check",6,"toolbox","toolbox","True",8082.29999923706,1577,"start_loc"
1578,885,"10_tb_1_e_e_ex",10,"attention_check",7,"van","van","True",26055.3999996185,1578,"end_loc"
1580,947,"3_fb_1_e_e_ex",3,"attention_check",6,"sink","sink","True",7041,1580,"start_loc"
1581,947,"3_fb_1_e_e_ex",3,"attention_check",7,"basket","basket","True",10144,1581,"end_loc"
1583,925,"10_tb_1_s_s_im",10,"attention_check",6,"toolbox","toolbox","True",5717.39999997616,1583,"start_loc"
1584,925,"10_tb_1_s_s_im",10,"attention_check",7,"van","van","True",5124.30000001192,1584,"end_loc"
1586,944,"10_fb_1_e_s_ex",10,"attention_check",6,"toolbox","building site","False",13440,1586,"start_loc"
1587,944,"10_fb_1_e_s_ex",10,"attention_check",7,"van","office","False",12015,1587,"end_loc"
1589,974,"5_tb_1_e_e_im",5,"attention_check",6,"hall","hall","True",4641,1589,"start_loc"
1590,974,"5_tb_1_e_e_im",5,"attention_check",7,"study","study","True",3890,1590,"end_loc"
1592,967,"5_fb_1_e_s_ex",5,"attention_check",6,"hall","site","False",8682,1592,"start_loc"
1593,967,"5_fb_1_e_s_ex",5,"attention_check",7,"study","new idea","False",12959,1593,"end_loc"
1595,889,"5_fb_1_e_e_im",5,"attention_check",6,"hall","hall","True",8908.40000009537,1595,"start_loc"
1596,889,"5_fb_1_e_e_im",5,"attention_check",7,"study","study","True",5414.09999990463,1596,"end_loc"
1598,948,"1_tb_1_e_s_ex",1,"attention_check",6,"box","box","True",7132.40000009537,1598,"start_loc"
1599,948,"1_tb_1_e_s_ex",1,"attention_check",7,"basket","basket","True",5472.5,1599,"end_loc"
1601,877,"11_fb_1_e_e_im",11,"attention_check",6,"suitcase","suitcase","True",8696.90000009537,1601,"start_loc"
1602,877,"11_fb_1_e_e_im",11,"attention_check",7,"backpack","suitcase","False",4463.2000002861,1602,"end_loc"
1604,897,"1_fb_1_s_s_ex",1,"attention_check",6,"box","box","True",9132.19999998808,1604,"start_loc"
1605,897,"1_fb_1_s_s_ex",1,"attention_check",7,"basket","basket","True",7282.5,1605,"end_loc"
1607,907,"11_tb_1_e_e_ex",11,"attention_check",6,"suitcase","suitcase","True",6640,1607,"start_loc"
1608,907,"11_tb_1_e_e_ex",11,"attention_check",7,"backpack","backpack","True",16300,1608,"end_loc"
1610,894,"8_fb_1_e_e_ex",8,"attention_check",6,"hall","hall","True",10360.3000000119,1610,"start_loc"
1611,894,"8_fb_1_e_e_ex",8,"attention_check",7,"bedroom","bedroom","True",29124.2000000179,1611,"end_loc"
1613,615,"4_tb_1_s_e_ex",4,"attention_check",6,"shed","I DON'T NO","False",143074.900000095,1613,"start_loc"
1614,615,"4_tb_1_s_e_ex",4,"attention_check",7,"garage","PAULA GETS BACK AND WANTS TO PLAY CATCH AGAIN","False",60940.2999999523,1614,"end_loc"
1616,876,"10_fb_1_e_s_ex",10,"attention_check",6,"toolbox","toolbox","True",18853.4000000954,1616,"start_loc"
