"id","participant_id","item_id","item","item_type","trial_index","correct_answer","response","is_correct","reaction_time","trial_ptr_id","condition","first_mention","recent_mention","knowledge_cue","start","end","is_start","is_end","passage_reading_time"
133,124,"3_fb_1_e_e_im",3,"critical",5,"sink","sink","True",4980,133,"False Belief","End","End","Implicit","sink","basket","True","False",8584.40000009537
136,111,"9_tb_1_e_s_im",9,"critical",5,"drawer","drawer","True",3606.29999999702,136,"True Belief","End","Start","Implicit","cupboard","drawer","False","True",18829.5
139,106,"9_tb_1_e_e_im",9,"critical",5,"drawer","gold","False",6666,139,"True Belief","End","End","Implicit","cupboard","drawer","False","False",705.099999904633
142,110,"1_fb_1_e_e_im",1,"critical",5,"box","box","True",13493.7999999821,142,"False Belief","End","End","Implicit","box","basket","True","False",12479.900000006
145,122,"3_tb_1_e_e_ex",3,"critical",5,"basket","basket","True",2914.5,145,"True Belief","End","End","Explicit","sink","basket","False","True",16071.8999998569
148,113,"11_fb_1_e_s_ex",11,"critical",5,"suitcase","suitcase","True",5732.89999999851,148,"False Belief","End","Start","Explicit","suitcase","backpack","True","False",21592.3999999985
151,149,"11_tb_1_e_e_im",11,"critical",5,"backpack","backpack","True",5716,151,"True Belief","End","End","Implicit","suitcase","backpack","False","True",14295
154,120,"3_tb_1_s_e_im",3,"critical",5,"basket","basket","True",10250.9000000358,154,"True Belief","Start","End","Implicit","sink","basket","False","True",28692
157,129,"8_tb_1_s_e_ex",8,"critical",5,"bedroom","bedroom","True",20667,157,"True Belief","Start","End","Explicit","hall","bedroom","False","True",14408
160,152,"9_tb_1_s_s_im",9,"critical",5,"drawer","cupboard","False",5682.5,160,"True Belief","Start","Start","Implicit","cupboard","drawer","True","False",13625.6999999881
163,136,"3_tb_1_e_s_im",3,"critical",5,"basket","basket.","False",6475,163,"True Belief","End","Start","Implicit","sink","basket","False","False",25096
166,115,"11_tb_1_e_e_ex",11,"critical",5,"backpack","backpack","True",11628.1000001431,166,"True Belief","End","End","Explicit","suitcase","backpack","False","True",33258.7999999523
169,156,"8_fb_1_s_e_im",8,"critical",5,"hall","hall","True",8069,169,"False Belief","Start","End","Implicit","hall","bedroom","True","False",27221
172,265,"4_fb_1_s_e_ex",4,"critical",5,"shed","shed","True",18687.1999999881,172,"False Belief","Start","End","Explicit","shed","garage","True","False",5996.89999997616
175,127,"2_tb_1_e_s_im",2,"critical",5,"fridge","fridge","True",7685.5,175,"True Belief","End","Start","Implicit","cupboard","fridge","False","True",21468.299999997
178,162,"9_tb_1_s_s_ex",9,"critical",5,"drawer","drawer","True",7371.19999999925,178,"True Belief","Start","Start","Explicit","cupboard","drawer","False","True",12213.4000000004
181,242,"9_tb_1_e_e_ex",9,"critical",5,"drawer","drawer","True",5346.20000004768,181,"True Belief","End","End","Explicit","cupboard","drawer","False","True",9125.89999997616
184,284,"7_tb_1_e_s_ex",7,"critical",5,"fridge","fridge","True",6526.80000001192,184,"True Belief","End","Start","Explicit","garage","fridge","False","True",13556.3999999762
187,189,"6_tb_1_e_s_im",6,"critical",5,"cabinet","cabinet","True",4715.7000002861,187,"True Belief","End","Start","Implicit","drawer","cabinet","False","True",24534.1999998093
190,128,"6_fb_1_s_e_ex",6,"critical",5,"drawer","drawer","True",5159.69999998808,190,"False Belief","Start","End","Explicit","drawer","cabinet","True","False",29671
193,114,"5_tb_1_e_e_ex",5,"critical",5,"study","study","True",4622.39999997616,193,"True Belief","End","End","Explicit","hall","study","False","True",21766.1999999881
196,168,"11_fb_1_e_e_ex",11,"critical",5,"suitcase","suitcase","True",9557.80000000075,196,"False Belief","End","End","Explicit","suitcase","backpack","True","False",17288
199,116,"2_tb_1_s_s_im",2,"critical",5,"fridge","refridgerator","False",14927.3999999985,199,"True Belief","Start","Start","Implicit","cupboard","fridge","False","False",22530.5
202,121,"5_tb_1_e_e_im",5,"critical",5,"study","hall","False",15258.299999997,202,"True Belief","End","End","Implicit","hall","study","True","False",27603.400000006
205,163,"10_tb_1_e_e_im",10,"critical",5,"van","van","True",9813,205,"True Belief","End","End","Implicit","toolbox","van","False","True",19236.8999996185
208,175,"7_tb_1_s_s_ex",7,"critical",5,"fridge","Fridge","True",5764,208,"True Belief","Start","Start","Explicit","garage","fridge","False","True",21471
211,119,"3_tb_1_s_s_im",3,"critical",5,"basket","dryer","False",38394.900000006,211,"True Belief","Start","Start","Implicit","sink","basket","False","False",17358.2000000179
214,117,"3_tb_1_e_s_ex",3,"critical",5,"basket","basket","True",12631.3000001907,214,"True Belief","End","Start","Explicit","sink","basket","False","True",28817.6999998093
217,223,"2_fb_1_s_s_im",2,"critical",5,"cupboard","cupboard","True",6016,217,"False Belief","Start","Start","Implicit","cupboard","fridge","True","False",15848
220,108,"9_fb_1_s_s_ex",9,"critical",5,"cupboard","cupboard","True",12763.7000000002,220,"False Belief","Start","Start","Explicit","cupboard","drawer","True","False",18691.2000000002
223,184,"1_tb_1_e_e_im",1,"critical",5,"basket","basket","True",5208.60000002384,223,"True Belief","End","End","Implicit","box","basket","False","True",30014.7999999821
226,165,"9_fb_1_s_e_ex",9,"critical",5,"cupboard","cupboard","True",6180,226,"False Belief","Start","End","Explicit","cupboard","drawer","True","False",32977.5
229,159,"3_fb_1_e_e_im",3,"critical",5,"sink","basket","False",8423.29999995232,229,"False Belief","End","End","Implicit","sink","basket","False","True",23685.7999999523
232,150,"10_fb_1_e_e_im",10,"critical",5,"toolbox","van","False",4762.19999999553,232,"False Belief","End","End","Implicit","toolbox","van","False","True",33604.6000000015
235,266,"4_fb_1_e_s_ex",4,"critical",5,"shed","shed","True",7893,235,"False Belief","End","Start","Explicit","shed","garage","True","False",32031
238,142,"7_fb_1_s_e_im",7,"critical",5,"garage","garage","True",7451.89999985695,238,"False Belief","Start","End","Implicit","garage","fridge","True","False",32951.7999999523
241,193,"11_fb_1_s_s_ex",11,"critical",5,"suitcase","suitcase","True",8151.89999997616,241,"False Belief","Start","Start","Explicit","suitcase","backpack","True","False",17214.8999999762
244,170,"7_tb_1_e_s_im",7,"critical",5,"fridge","fridge","True",14276.7000000477,244,"True Belief","End","Start","Implicit","garage","fridge","False","True",24056
247,275,"6_fb_1_s_s_im",6,"critical",5,"drawer","drawer","True",7156.10000038147,247,"False Belief","Start","Start","Implicit","drawer","cabinet","True","False",20896.7000002861
250,286,"12_tb_1_e_e_im",12,"critical",5,"hut","hut","True",4085.89999999851,250,"True Belief","End","End","Implicit","stable","hut","False","True",28889.5999999978
253,131,"4_tb_1_e_s_im",4,"critical",5,"garage","shed","False",5249.70000004768,253,"True Belief","End","Start","Implicit","shed","garage","True","False",39011.3000001907
256,389,"2_fb_1_s_s_ex",2,"critical",5,"cupboard","gold","False",4115,256,"False Belief","Start","Start","Explicit","cupboard","fridge","False","False",734.89999961853
259,182,"4_tb_1_s_s_ex",4,"critical",5,"garage","garage","True",10256.3000000007,259,"True Belief","Start","Start","Explicit","shed","garage","False","True",27318.8000000007
262,232,"1_tb_1_s_e_im",1,"critical",5,"basket","basket","True",7044.70000001788,262,"True Belief","Start","End","Implicit","box","basket","False","True",41556.3000000119
265,226,"9_fb_1_s_e_im",9,"critical",5,"cupboard","drawer","False",11293,265,"False Belief","Start","End","Implicit","cupboard","drawer","False","True",14313.7999999523
268,160,"6_fb_1_s_e_ex",6,"critical",5,"drawer","drawer","True",7683.89999999106,268,"False Belief","Start","End","Explicit","drawer","cabinet","True","False",31808.099999994
271,257,"6_tb_1_s_e_im",6,"critical",5,"cabinet","cabinet","True",7782.19999980927,271,"True Belief","Start","End","Implicit","drawer","cabinet","False","True",18931
274,234,"9_fb_1_e_s_im",9,"critical",5,"cupboard","drawer","False",7362.69999999925,274,"False Belief","End","Start","Implicit","cupboard","drawer","False","True",13588
277,228,"5_fb_1_e_s_im",5,"critical",5,"hall","hall","True",10260.5,277,"False Belief","End","Start","Implicit","hall","study","True","False",23281.5
280,174,"4_tb_1_e_e_im",4,"critical",5,"garage","shed","False",26541.5,280,"True Belief","End","End","Implicit","shed","garage","True","False",21968.400000006
283,329,"4_fb_1_s_s_ex",4,"critical",5,"shed","shed.","False",4826.60000014305,283,"False Belief","Start","Start","Explicit","shed","garage","False","False",8119.70000004768
286,269,"12_fb_1_e_s_ex",12,"critical",5,"stable","Hut","False",4575,286,"False Belief","End","Start","Explicit","stable","hut","False","True",24128
289,308,"2_fb_1_e_e_im",2,"critical",5,"cupboard","cupboard","True",6050.90000009537,289,"False Belief","End","End","Implicit","cupboard","fridge","True","False",20710.5
292,306,"12_fb_1_e_s_im",12,"critical",5,"stable","house","False",46035.7999999523,292,"False Belief","End","Start","Implicit","stable","hut","False","False",1208.29999995232
295,209,"12_tb_1_s_e_ex",12,"critical",5,"hut","stable","False",13047.099999994,295,"True Belief","Start","End","Explicit","stable","hut","True","False",25931
298,341,"11_fb_1_s_s_ex",11,"critical",5,"suitcase","suitcase","True",4598.30000000005,298,"False Belief","Start","Start","Explicit","suitcase","backpack","True","False",18794.7
301,297,"12_tb_1_s_e_im",12,"critical",5,"hut","BARN","False",11460.2999999523,301,"True Belief","Start","End","Implicit","stable","hut","False","False",39312.6999998093
304,180,"5_tb_1_e_s_ex",5,"critical",5,"study","bathroom","False",20281.7000000477,304,"True Belief","End","Start","Explicit","hall","study","False","False",32141.2000000477
307,196,"3_fb_1_e_s_im",3,"critical",5,"sink","sink","True",6705,307,"False Belief","End","Start","Implicit","sink","basket","True","False",53819.5999999046
310,326,"12_fb_1_e_s_ex",12,"critical",5,"stable","stable","True",8907.59999999404,310,"False Belief","End","Start","Explicit","stable","hut","True","False",24069.099999994
313,351,"9_fb_1_e_e_im",9,"critical",5,"cupboard","drawer","False",9527,313,"False Belief","End","End","Implicit","cupboard","drawer","False","True",14859
316,138,"4_fb_1_e_s_ex",4,"critical",5,"shed","shed","True",7681.40000000037,316,"False Belief","End","Start","Explicit","shed","garage","True","False",39106.8000000007
319,155,"2_tb_1_s_s_im",2,"critical",5,"fridge","fridge","True",22379.3999999985,319,"True Belief","Start","Start","Implicit","cupboard","fridge","False","True",32592
322,125,"9_tb_1_s_e_im",9,"critical",5,"drawer","drawer","True",23455.1999999881,322,"True Belief","Start","End","Implicit","cupboard","drawer","False","True",61597.8999999762
325,243,"4_fb_1_s_s_im",4,"critical",5,"shed","1","False",5906,325,"False Belief","Start","Start","Implicit","shed","garage","False","False",1693
328,200,"6_fb_1_s_s_im",6,"critical",5,"drawer","drawer","True",10276.4000000358,328,"False Belief","Start","Start","Implicit","drawer","cabinet","True","False",26106.3000000119
331,366,"5_fb_1_s_e_im",5,"critical",5,"hall","bathroom","False",5244.09999999776,331,"False Belief","Start","End","Implicit","hall","study","False","False",30180.6999999993
334,169,"6_tb_1_s_e_ex",6,"critical",5,"cabinet","cabinet","True",18943.5,334,"True Belief","Start","End","Explicit","drawer","cabinet","False","True",18602
337,112,"2_tb_1_s_e_ex",2,"critical",5,"fridge","cupboard","False",22210.8999999762,337,"True Belief","Start","End","Explicit","cupboard","fridge","True","False",15701.5
340,315,"2_fb_1_s_s_im",2,"critical",5,"cupboard","cupboard","True",9680.70000001788,340,"False Belief","Start","Start","Implicit","cupboard","fridge","True","False",37738.7000000179
343,173,"6_fb_1_s_e_im",6,"critical",5,"drawer","cabinet","False",12823.3999999999,343,"False Belief","Start","End","Implicit","drawer","cabinet","False","True",31475.8999999999
346,249,"11_fb_1_s_e_im",11,"critical",5,"suitcase","backpack","False",7038.40000000596,346,"False Belief","Start","End","Implicit","suitcase","backpack","False","True",17773.3000000119
349,288,"2_tb_1_e_e_im",2,"critical",5,"fridge","kitchen","False",70695.5,349,"True Belief","End","End","Implicit","cupboard","fridge","False","False",4001.5
352,255,"8_fb_1_e_e_im",8,"critical",5,"hall","hall","True",20488.7999992371,352,"False Belief","End","End","Implicit","hall","bedroom","True","False",23799.8999996185
355,406,"12_fb_1_s_e_ex",12,"critical",5,"stable","stable","True",6889.59999999963,355,"False Belief","Start","End","Explicit","stable","hut","True","False",22198
358,317,"10_tb_1_e_s_im",10,"critical",5,"van","van","True",11461.1000000238,358,"True Belief","End","Start","Implicit","toolbox","van","False","True",47148.6999999285
361,137,"10_fb_1_s_e_ex",10,"critical",5,"toolbox","toolbox","True",48641.3999999762,361,"False Belief","Start","End","Explicit","toolbox","van","True","False",9218.39999997616
364,360,"4_fb_1_e_s_im",4,"critical",5,"shed","FOOTBALL","False",11369.8000001907,364,"False Belief","End","Start","Implicit","shed","garage","False","False",1438.30000019073
367,187,"3_fb_1_e_e_ex",3,"critical",5,"sink","sink","True",11720.0999999046,367,"False Belief","End","End","Explicit","sink","basket","True","False",14646.5999999046
370,238,"3_tb_1_s_e_im",3,"critical",5,"basket","basket","True",15456.2000000477,370,"True Belief","Start","End","Implicit","sink","basket","False","True",28150.1999998093
373,188,"2_fb_1_e_e_im",2,"critical",5,"cupboard","fridge","False",11748.1000000006,373,"False Belief","End","End","Implicit","cupboard","fridge","False","True",44480.2000000002
376,332,"7_fb_1_e_e_im",7,"critical",5,"garage","fridge","False",5776.39999997616,376,"False Belief","End","End","Implicit","garage","fridge","False","True",16655.5999999046
379,278,"7_tb_1_e_s_ex",7,"critical",5,"fridge","fridge","True",26792,379,"True Belief","End","Start","Explicit","garage","fridge","False","True",29656
382,331,"5_fb_1_e_e_ex",5,"critical",5,"hall","hall","True",6578.79999999981,382,"False Belief","End","End","Explicit","hall","study","True","False",38847.0999999996
385,415,"1_tb_1_e_e_ex",1,"critical",5,"basket","room","False",4037.70000004768,385,"True Belief","End","End","Explicit","box","basket","False","False",3818.29999995232
388,133,"8_tb_1_e_s_ex",8,"critical",5,"bedroom","HALL","False",45982.8000001907,388,"True Belief","End","Start","Explicit","hall","bedroom","True","False",32440.6000003815
391,311,"1_tb_1_s_s_ex",1,"critical",5,"basket","basket","True",6025.40000009537,391,"True Belief","Start","Start","Explicit","box","basket","False","True",34717.6999998093
394,318,"5_tb_1_e_s_im",5,"critical",5,"study","bathroom","False",8636.70000004768,394,"True Belief","End","Start","Implicit","hall","study","False","False",30981.6000000238
397,215,"7_tb_1_e_e_im",7,"critical",5,"fridge","pop","False",71712.2000007629,397,"True Belief","End","End","Implicit","garage","fridge","False","False",769.699999809265
400,179,"1_tb_1_s_s_ex",1,"critical",5,"basket","basket","True",17561.8000001907,400,"True Belief","Start","Start","Explicit","box","basket","False","True",45856.5999999046
403,190,"8_tb_1_s_e_ex",8,"critical",5,"bedroom","nice","False",12077.8999999762,403,"True Belief","Start","End","Explicit","hall","bedroom","False","False",1621.19999998808
406,386,"1_tb_1_s_e_im",1,"critical",5,"basket","basket","True",8866,406,"True Belief","Start","End","Implicit","box","basket","False","True",24642
409,210,"4_fb_1_s_s_ex",4,"critical",5,"shed","shed","True",6401,409,"False Belief","Start","Start","Explicit","shed","garage","True","False",27641
412,339,"2_tb_1_e_s_im",2,"critical",5,"fridge","cupboard","False",7780.20000004768,412,"True Belief","End","Start","Implicit","cupboard","fridge","True","False",21048.8999999762
415,356,"11_fb_1_e_e_im",11,"critical",5,"suitcase","suitcase","True",10816.6000000015,415,"False Belief","End","End","Implicit","suitcase","backpack","True","False",16666.8000000007
418,270,"9_tb_1_e_e_ex",9,"critical",5,"drawer","cupboard","False",9606.5,418,"True Belief","End","End","Explicit","cupboard","drawer","True","False",16465.7999999523
421,123,"8_tb_1_s_e_im",8,"critical",5,"bedroom","hall.","False",14889.9000000358,421,"True Belief","Start","End","Implicit","hall","bedroom","False","False",47028.5
424,126,"3_fb_1_e_s_ex",3,"critical",5,"sink","basket","False",47891.7999999821,424,"False Belief","End","Start","Explicit","sink","basket","False","True",11366.599999994
427,214,"11_fb_1_e_s_ex",11,"critical",5,"suitcase","suitcase","True",8924.89999999851,427,"False Belief","End","Start","Explicit","suitcase","backpack","True","False",51846
430,146,"12_tb_1_e_s_ex",12,"critical",5,"hut","stable","False",13277,430,"True Belief","End","Start","Explicit","stable","hut","True","False",20963
433,503,"12_tb_1_s_e_im",12,"critical",5,"hut","barn","False",4140.80000001192,433,"True Belief","Start","End","Implicit","stable","hut","False","False",4281.90000000596
436,250,"11_tb_1_s_e_im",11,"critical",5,"backpack","TRAIN","False",10401.1999998093,436,"True Belief","Start","End","Implicit","suitcase","backpack","False","False",3145
439,201,"12_fb_1_e_s_im",12,"critical",5,"stable","stable","True",10150.200000003,439,"False Belief","End","Start","Implicit","stable","hut","True","False",57701.5
442,411,"10_tb_1_s_e_im",10,"critical",5,"van","van","True",4285.59999999776,442,"True Belief","Start","End","Implicit","toolbox","van","False","True",23557.9000000022
445,309,"5_tb_1_s_e_im",5,"critical",5,"study","hall ","False",47383.3999999985,445,"True Belief","Start","End","Implicit","hall","study","False","False",16646.3999999985
448,437,"12_tb_1_s_e_ex",12,"critical",5,"hut","hut","True",9264.70000000298,448,"True Belief","Start","End","Explicit","stable","hut","False","True",25879.400000006
451,413,"9_fb_1_s_s_im",9,"critical",5,"cupboard","cupboard","True",12030.2999999523,451,"False Belief","Start","Start","Implicit","cupboard","drawer","True","False",16575.7000000477
454,107,"2_tb_1_s_e_im",2,"critical",5,"fridge","cupboard","False",43952,454,"True Belief","Start","End","Implicit","cupboard","fridge","True","False",24760.2999997139
457,377,"12_tb_1_s_s_ex",12,"critical",5,"hut","bathsoab","False",13112,457,"True Belief","Start","Start","Explicit","stable","hut","False","False",6625
460,300,"4_tb_1_e_s_ex",4,"critical",5,"garage","garage","True",8807,460,"True Belief","End","Start","Explicit","shed","garage","False","True",65520.1999999993
463,283,"12_fb_1_e_e_ex",12,"critical",5,"stable","stable","True",10714.5,463,"False Belief","End","End","Explicit","stable","hut","True","False",22369.5
466,154,"11_tb_1_e_e_ex",11,"critical",5,"backpack","backpack","True",28393,466,"True Belief","End","End","Explicit","suitcase","backpack","False","True",36114
469,363,"4_tb_1_s_e_im",4,"critical",5,"garage","garage","True",17069,469,"True Belief","Start","End","Implicit","shed","garage","False","True",48620.8999999911
472,267,"1_fb_1_e_e_im",1,"critical",5,"box","box","True",5812,472,"False Belief","End","End","Implicit","box","basket","True","False",33097
475,398,"4_tb_1_e_s_im",4,"critical",5,"garage","garage","True",7499.09999999776,475,"True Belief","End","Start","Implicit","shed","garage","False","True",13386.5999999978
478,372,"3_tb_1_s_s_ex",3,"critical",5,"basket","sink","False",4834,478,"True Belief","Start","Start","Explicit","sink","basket","True","False",12661.6999999881
481,390,"8_tb_1_e_e_ex",8,"critical",5,"bedroom","world","False",16211,481,"True Belief","End","End","Explicit","hall","bedroom","False","False",3356
484,181,"4_fb_1_s_s_im",4,"critical",5,"shed","shed","True",8308.60000014305,484,"False Belief","Start","Start","Implicit","shed","garage","True","False",26870.2999999523
487,381,"7_tb_1_e_s_ex",7,"critical",5,"fridge","refrigerator","False",14628.7000000011,487,"True Belief","End","Start","Explicit","garage","fridge","False","False",19195.5999999996
490,147,"8_tb_1_s_e_ex",8,"critical",5,"bedroom","hall","False",25118.1000001431,490,"True Belief","Start","End","Explicit","hall","bedroom","True","False",47465.9000000954
493,482,"8_fb_1_e_e_im",8,"critical",5,"hall","hall","True",5190,493,"False Belief","End","End","Implicit","hall","bedroom","True","False",20763
496,466,"5_fb_1_s_e_im",5,"critical",5,"hall","hall","True",7932.40000000596,496,"False Belief","Start","End","Implicit","hall","study","True","False",23703.8000000119
499,262,"11_tb_1_e_s_ex",11,"critical",5,"backpack","suitcase","False",9964.69999992847,499,"True Belief","End","Start","Explicit","suitcase","backpack","True","False",40424.6000000238
502,161,"6_tb_1_e_s_ex",6,"critical",5,"cabinet","cabinet","True",11197.799999997,502,"True Belief","End","Start","Explicit","drawer","cabinet","False","True",44163.3999999985
505,371,"5_fb_1_e_e_im",5,"critical",5,"hall","study","False",23968.9000000358,505,"False Belief","End","End","Implicit","hall","study","False","True",43181.5
508,224,"2_fb_1_s_s_ex",2,"critical",5,"cupboard","cupboard","True",21446.3000000007,508,"False Belief","Start","Start","Explicit","cupboard","fridge","True","False",31689.9000000022
511,460,"8_tb_1_s_e_im",8,"critical",5,"bedroom","bedroom","True",8337.90000009537,511,"True Belief","Start","End","Implicit","hall","bedroom","False","True",16314.5
514,139,"11_fb_1_s_e_ex",11,"critical",5,"suitcase","suitcase","True",38244.2999999821,514,"False Belief","Start","End","Explicit","suitcase","backpack","True","False",58220.3000000119
517,294,"9_fb_1_s_s_ex",9,"critical",5,"cupboard","drawer","False",13007.2999999523,517,"False Belief","Start","Start","Explicit","cupboard","drawer","False","True",19872.3000000119
520,408,"4_tb_1_e_s_ex",4,"critical",5,"garage","shed","False",26146.1000000238,520,"True Belief","End","Start","Explicit","shed","garage","True","False",25929.1000000238
523,464,"9_tb_1_s_s_im",9,"critical",5,"drawer","drawer","True",5456.90000009537,523,"True Belief","Start","Start","Implicit","cupboard","drawer","False","True",28746
526,420,"12_fb_1_s_s_ex",12,"critical",5,"stable","bench","False",27708.4000000954,526,"False Belief","Start","Start","Explicit","stable","hut","False","False",1992.29999995232
529,298,"5_tb_1_s_e_ex",5,"critical",5,"study","hall","False",15430,529,"True Belief","Start","End","Explicit","hall","study","True","False",44886
532,292,"1_tb_1_s_s_im",1,"critical",5,"basket","library.","False",31731.3999999762,532,"True Belief","Start","Start","Implicit","box","basket","False","False",67763.7999999523
535,312,"8_tb_1_e_s_im",8,"critical",5,"bedroom","bedroom","True",22079,535,"True Belief","End","Start","Implicit","hall","bedroom","False","True",22697
538,379,"8_fb_1_e_s_ex",8,"critical",5,"hall","hall","True",18243.7999999523,538,"False Belief","End","Start","Explicit","hall","bedroom","True","False",40241.3999998569
541,346,"12_tb_1_s_e_im",12,"critical",5,"hut","yes","False",32046.4000000954,541,"True Belief","Start","End","Implicit","stable","hut","False","False",2356.70000004768
544,328,"1_fb_1_s_e_ex",1,"critical",5,"box","BOX","True",8791,544,"False Belief","Start","End","Explicit","box","basket","True","False",23914
547,404,"5_fb_1_e_s_im",5,"critical",5,"hall","keys","False",47281,547,"False Belief","End","Start","Implicit","hall","study","False","False",1458
550,480,"1_fb_1_e_e_im",1,"critical",5,"box","box","True",5290.5,550,"False Belief","End","End","Implicit","box","basket","True","False",12159.8000000715
553,211,"3_tb_1_s_e_ex",3,"critical",5,"basket","basket ","False",11879,553,"True Belief","Start","End","Explicit","sink","basket","False","False",25730
556,439,"1_fb_1_e_e_ex",1,"critical",5,"box","nice","False",13713.8999999762,556,"False Belief","End","End","Explicit","box","basket","False","False",2034.89999997616
559,301,"10_fb_1_s_s_ex",10,"critical",5,"toolbox","toolbox","True",10855.200000003,559,"False Belief","Start","Start","Explicit","toolbox","van","True","False",42128.5
562,207,"10_fb_1_s_e_ex",10,"critical",5,"toolbox","tool box ","False",16100.6000000238,562,"False Belief","Start","End","Explicit","toolbox","van","False","False",42827.2000000477
565,321,"3_tb_1_s_e_ex",3,"critical",5,"basket","basket","True",11445.900000006,565,"True Belief","Start","End","Explicit","sink","basket","False","True",45208
568,349,"4_tb_1_e_s_ex",4,"critical",5,"garage","shed","False",21135,568,"True Belief","End","Start","Explicit","shed","garage","True","False",23947
571,280,"9_fb_1_e_e_im",9,"critical",5,"cupboard","cupboard","True",8292.19999998808,571,"False Belief","End","End","Implicit","cupboard","drawer","True","False",40073
574,316,"7_fb_1_s_s_ex",7,"critical",5,"garage","garage","True",6162,574,"False Belief","Start","Start","Explicit","garage","fridge","True","False",99163.4000000954
577,450,"8_fb_1_e_e_im",8,"critical",5,"hall","hall","True",6404,577,"False Belief","End","End","Implicit","hall","bedroom","True","False",31483
580,305,"10_tb_1_e_e_im",10,"critical",5,"van","van","True",42583.3999999911,580,"True Belief","End","End","Implicit","toolbox","van","False","True",88689.700000003
583,417,"1_fb_1_s_e_ex",1,"critical",5,"box","box","True",30242.799999997,583,"False Belief","Start","End","Explicit","box","basket","True","False",22133.3999999985
586,153,"8_tb_1_e_s_im",8,"critical",5,"bedroom","bedroom","True",74154.0999999046,586,"True Belief","End","Start","Implicit","hall","bedroom","False","True",72707.0999999046
589,560,"1_fb_1_e_s_ex",1,"critical",5,"box","box","True",3580,589,"False Belief","End","Start","Explicit","box","basket","True","False",4512
592,383,"4_fb_1_s_e_ex",4,"critical",5,"shed","shed","True",9651.19999998808,592,"False Belief","Start","End","Explicit","shed","garage","True","False",33165.6999999881
595,319,"3_fb_1_e_e_im",3,"critical",5,"sink","GOOD","False",59262.9000000358,595,"False Belief","End","End","Implicit","sink","basket","False","False",1965.09999996424
598,397,"1_tb_1_e_s_ex",1,"critical",5,"basket","box","False",9780.89999997616,598,"True Belief","End","Start","Explicit","box","basket","True","False",14065.5
601,483,"3_tb_1_s_s_ex",3,"critical",5,"basket","dirty","False",5197.20000004768,601,"True Belief","Start","Start","Explicit","sink","basket","False","False",15439.6000000238
604,456,"3_tb_1_s_s_im",3,"critical",5,"basket","basket","True",7554.90000003576,604,"True Belief","Start","Start","Implicit","sink","basket","False","True",40788
607,494,"1_tb_1_s_s_ex",1,"critical",5,"basket","kitchen","False",3706,607,"True Belief","Start","Start","Explicit","box","basket","False","False",12321
610,511,"11_fb_1_e_s_im",11,"critical",5,"suitcase","suitcase","True",10940,610,"False Belief","End","Start","Implicit","suitcase","backpack","True","False",35089
613,245,"9_fb_1_s_s_im",9,"critical",5,"cupboard","KITCHEN","False",16191.7000000477,613,"False Belief","Start","Start","Implicit","cupboard","drawer","False","False",26188
616,489,"5_fb_1_s_s_ex",5,"critical",5,"hall","hall","True",9207.09999999404,616,"False Belief","Start","Start","Explicit","hall","study","True","False",27056.3999999911
619,385,"9_fb_1_e_e_ex",9,"critical",5,"cupboard","CUPBOARD","True",17436,619,"False Belief","End","End","Explicit","cupboard","drawer","True","False",27462
622,369,"11_tb_1_s_s_ex",11,"critical",5,"backpack","backpack","True",8727.89999999851,622,"True Belief","Start","Start","Explicit","suitcase","backpack","False","True",85856.3999999985
625,399,"8_fb_1_s_s_ex",8,"critical",5,"hall","bedroom","False",8052,625,"False Belief","Start","Start","Explicit","hall","bedroom","False","True",39802
628,396,"3_fb_1_e_s_im",3,"critical",5,"sink","sink","True",14399,628,"False Belief","End","Start","Implicit","sink","basket","True","False",54063
631,375,"1_fb_1_s_s_im",1,"critical",5,"box","5","False",12730,631,"False Belief","Start","Start","Implicit","box","basket","False","False",8891
634,477,"4_tb_1_e_e_im",4,"critical",5,"garage","house","False",4204,634,"True Belief","End","End","Implicit","shed","garage","False","False",73488
637,355,"5_fb_1_s_s_im",5,"critical",5,"hall","HALL","True",59774,637,"False Belief","Start","Start","Implicit","hall","study","True","False",16115
640,487,"3_fb_1_s_s_im",3,"critical",5,"sink","sink","True",8953.69999999925,640,"False Belief","Start","Start","Implicit","sink","basket","True","False",24162.8999999985
643,353,"6_tb_1_s_e_im",6,"critical",5,"cabinet","drawer","False",9779.70000004768,643,"True Belief","Start","End","Implicit","drawer","cabinet","True","False",35436.5
646,523,"1_fb_1_s_s_ex",1,"critical",5,"box","basket","False",9137.39999997616,646,"False Belief","Start","Start","Explicit","box","basket","False","True",24611.3000000119
649,524,"3_fb_1_e_s_ex",3,"critical",5,"sink","sink","True",5597.2999997139,649,"False Belief","End","Start","Explicit","sink","basket","True","False",23666.0999999046
652,388,"7_fb_1_e_e_im",7,"critical",5,"garage","fridge.","False",18568.5999999978,652,"False Belief","End","End","Implicit","garage","fridge","False","False",46235.3000000007
655,254,"2_tb_1_e_e_im",2,"critical",5,"fridge","fridge","True",47878.3999999985,655,"True Belief","End","End","Implicit","cupboard","fridge","False","True",27735.6000000015
658,225,"3_tb_1_e_s_ex",3,"critical",5,"basket","sink","False",79609.5,658,"True Belief","End","Start","Explicit","sink","basket","True","False",16188.3000001907
661,518,"4_fb_1_e_s_im",4,"critical",5,"shed","garage","False",7815.39999997616,661,"False Belief","End","Start","Implicit","shed","garage","False","True",31326.6999999881
664,449,"1_fb_1_s_s_ex",1,"critical",5,"box","box","True",16228.9999999994,664,"False Belief","Start","Start","Explicit","box","basket","True","False",59712.1999999981
667,419,"11_fb_1_s_e_im",11,"critical",5,"suitcase","suitcase","True",21972,667,"False Belief","Start","End","Implicit","suitcase","backpack","True","False",26738
670,403,"1_tb_1_e_s_ex",1,"critical",5,"basket","shop","False",11929,670,"True Belief","End","Start","Explicit","box","basket","False","False",108272
673,569,"1_fb_1_s_e_im",1,"critical",5,"box","the book seam","False",10699,673,"False Belief","Start","End","Implicit","box","basket","False","False",1097
676,575,"9_tb_1_e_e_im",9,"critical",5,"drawer","drawer","True",24300.5,676,"True Belief","End","End","Implicit","cupboard","drawer","False","True",3949.29999995232
679,516,"3_tb_1_s_s_im",3,"critical",5,"basket","basket","True",6562.09999999404,679,"True Belief","Start","Start","Implicit","sink","basket","False","True",19227.1000000089
682,335,"7_fb_1_s_e_ex",7,"critical",5,"garage","garage","True",6949,682,"False Belief","Start","End","Explicit","garage","fridge","True","False",128780.100000009
685,203,"7_fb_1_e_e_ex",7,"critical",5,"garage","garage ","False",169398.5,685,"False Belief","End","End","Explicit","garage","fridge","False","False",1154.89999961853
688,342,"4_tb_1_e_e_ex",4,"critical",5,"garage","shed","False",14307,688,"True Belief","End","End","Explicit","shed","garage","True","False",65230.299999997
691,582,"7_fb_1_s_s_ex",7,"critical",5,"garage","  While David is gone, .","False",11152.5999999642,691,"False Belief","Start","Start","Explicit","garage","fridge","False","False",2850.80000001192
694,248,"12_fb_1_s_s_im",12,"critical",5,"stable","bedroom","False",140845,694,"False Belief","Start","Start","Implicit","stable","hut","False","False",871
697,565,"8_tb_1_s_e_im",8,"critical",5,"bedroom","PAINTING","False",9427.29999995232,697,"True Belief","Start","End","Implicit","hall","bedroom","False","False",896.700000047684
700,393,"11_tb_1_e_e_im",11,"critical",5,"backpack","backpack","True",15264.599999994,700,"True Belief","End","End","Implicit","suitcase","backpack","False","True",16169.200000003
703,320,"11_tb_1_e_s_im",11,"critical",5,"backpack","backpack","True",117007,703,"True Belief","End","Start","Implicit","suitcase","backpack","False","True",9677
706,469,"4_tb_1_e_s_im",4,"critical",5,"garage","garage","True",9399,706,"True Belief","End","Start","Implicit","shed","garage","False","True",25545.1999999881
709,567,"8_fb_1_e_s_ex",8,"critical",5,"hall","bedroom","False",7014.70000001788,709,"False Belief","End","Start","Explicit","hall","bedroom","False","True",16064.099999994
712,314,"10_fb_1_s_e_im",10,"critical",5,"toolbox","van","False",17509,712,"False Belief","Start","End","Implicit","toolbox","van","False","True",38676
715,164,"9_fb_1_e_s_ex",9,"critical",5,"cupboard","Drawer","False",16882.5,715,"False Belief","End","Start","Explicit","cupboard","drawer","False","True",3162.70000004768
718,135,"6_fb_1_e_s_im",6,"critical",5,"drawer","ROSS","False",59734.1999998093,718,"False Belief","End","Start","Implicit","drawer","cabinet","False","False",6985.60000038147
721,568,"3_tb_1_e_e_im",3,"critical",5,"basket","sink","False",6929.40000000037,721,"True Belief","End","End","Implicit","sink","basket","True","False",19429.3000000003
724,426,"6_fb_1_e_e_im",6,"critical",5,"drawer","drawer","True",6137,724,"False Belief","End","End","Implicit","drawer","cabinet","True","False",24567
727,520,"12_tb_1_s_e_ex",12,"critical",5,"hut","stable","False",15560,727,"True Belief","Start","End","Explicit","stable","hut","True","False",21071
730,247,"3_tb_1_e_e_im",3,"critical",5,"basket","sink","False",108090.300000191,730,"True Belief","End","End","Implicit","sink","basket","True","False",16504.6000003815
733,577,"7_tb_1_s_e_im",7,"critical",5,"fridge","fridge","True",11517,733,"True Belief","Start","End","Implicit","garage","fridge","False","True",23370
736,553,"2_tb_1_e_s_ex",2,"critical",5,"fridge","fridge","True",6716.30000019073,736,"True Belief","End","Start","Explicit","cupboard","fridge","False","True",27341.4000000954
739,178,"6_tb_1_s_e_ex",6,"critical",5,"cabinet","drawer","False",70905.8999999762,739,"True Belief","Start","End","Explicit","drawer","cabinet","True","False",76520.4000000358
742,171,"3_tb_1_e_e_ex",3,"critical",5,"basket","basket","True",19250,742,"True Belief","End","End","Explicit","sink","basket","False","True",30755
745,429,"1_tb_1_s_e_ex",1,"critical",5,"basket","basket","True",5277.19999980927,745,"True Belief","Start","End","Explicit","box","basket","False","True",96060.2999997139
748,510,"1_fb_1_e_e_im",1,"critical",5,"box","basket","False",18555.1000000238,748,"False Belief","End","End","Implicit","box","basket","False","True",24927.3000000119
751,357,"3_fb_1_s_s_im",3,"critical",5,"sink","sink.","False",44072.3999999985,751,"False Belief","Start","Start","Implicit","sink","basket","False","False",47188.5
754,534,"5_fb_1_s_s_im",5,"critical",5,"hall","hall","True",9281.5,754,"False Belief","Start","Start","Implicit","hall","study","True","False",21178.6999999881
757,258,"6_fb_1_s_s_ex",6,"critical",5,"drawer","ross","False",50591,757,"False Belief","Start","Start","Explicit","drawer","cabinet","False","False",18030
760,338,"1_tb_1_e_e_im",1,"critical",5,"basket"," Sean","False",62576.3000000119,760,"True Belief","End","End","Implicit","box","basket","False","False",26699.0999999642
763,583,"12_tb_1_e_e_im",12,"critical",5,"hut","stable","False",9144.80000007153,763,"True Belief","End","End","Implicit","stable","hut","True","False",17870
766,509,"6_tb_1_s_s_im",6,"critical",5,"cabinet","drawer","False",28790.1999999881,766,"True Belief","Start","Start","Implicit","drawer","cabinet","True","False",47559.099999994
769,593,"12_tb_1_e_e_im",12,"critical",5,"hut","stable","False",7666,769,"True Belief","End","End","Implicit","stable","hut","True","False",12487.099999994
772,601,"8_fb_1_e_s_im",8,"critical",5,"hall","  dgh","False",10687.9000000954,772,"False Belief","End","Start","Implicit","hall","bedroom","False","False",978.799999952316
775,517,"10_fb_1_e_s_im",10,"critical",5,"toolbox","toolbox","True",9259,775,"False Belief","End","Start","Implicit","toolbox","van","True","False",31228
778,612,"11_tb_1_s_s_ex",11,"critical",5,"backpack","Suitcase","False",8272.10000000894,778,"True Belief","Start","Start","Explicit","suitcase","backpack","True","False",21519.200000003
781,428,"8_fb_1_s_s_ex",8,"critical",5,"hall","wall","False",10944,781,"False Belief","Start","Start","Explicit","hall","bedroom","False","False",2095
784,608,"3_fb_1_s_s_ex",3,"critical",5,"sink","washer","False",10784,784,"False Belief","Start","Start","Explicit","sink","basket","False","False",6212.29999999888
787,474,"6_tb_1_s_e_im",6,"critical",5,"cabinet","document","False",16196.1999999881,787,"True Belief","Start","End","Implicit","drawer","cabinet","False","False",22578.6000000238
790,625,"1_fb_1_e_e_ex",1,"critical",5,"box","box","True",6871.09999999404,790,"False Belief","End","End","Explicit","box","basket","True","False",20687.3999999985
793,221,"9_fb_1_s_e_ex",9,"critical",5,"cupboard","cupboard","True",40904.3000000119,793,"False Belief","Start","End","Explicit","cupboard","drawer","True","False",38713.1999999881
796,622,"7_tb_1_e_s_im",7,"critical",5,"fridge","garage","False",6931,796,"True Belief","End","Start","Implicit","garage","fridge","True","False",26084
799,505,"1_tb_1_e_s_ex",1,"critical",5,"basket","basket","True",13443,799,"True Belief","End","Start","Explicit","box","basket","False","True",42179
802,423,"5_tb_1_e_s_ex",5,"critical",5,"study","study","True",15170.400000006,802,"True Belief","End","Start","Explicit","hall","study","False","True",75749.1000000015
805,490,"10_fb_1_s_s_im",10,"critical",5,"toolbox","toolbox","True",13809.200000003,805,"False Belief","Start","Start","Implicit","toolbox","van","True","False",42208.3999999985
808,400,"2_fb_1_s_s_im",2,"critical",5,"cupboard","cupboard","True",78057.4000000954,808,"False Belief","Start","Start","Implicit","cupboard","fridge","True","False",19405.9000000954
811,493,"3_fb_1_s_e_ex",3,"critical",5,"sink","blue","False",27964,811,"False Belief","Start","End","Explicit","sink","basket","False","False",1587
814,529,"7_tb_1_s_s_im",7,"critical",5,"fridge","fridge","True",11054.7999999523,814,"True Belief","Start","Start","Implicit","garage","fridge","False","True",40790.5999999642
817,573,"5_fb_1_e_e_ex",5,"critical",5,"hall","hall","True",7119.20000004768,817,"False Belief","End","End","Explicit","hall","study","True","False",19839.0999999046
820,481,"8_fb_1_s_s_ex",8,"critical",5,"hall","hall","True",58064.3000001907,820,"False Belief","Start","Start","Explicit","hall","bedroom","True","False",11018.2999992371
823,532,"10_fb_1_e_s_im",10,"critical",5,"toolbox","PROBLEM","False",27322.1000001431,823,"False Belief","End","Start","Implicit","toolbox","van","False","False",72.7999999523163
826,571,"7_tb_1_s_e_ex",7,"critical",5,"fridge","garage","False",16731.1000000015,826,"True Belief","Start","End","Explicit","garage","fridge","True","False",41358.0999999978
829,591,"4_tb_1_s_s_im",4,"critical",5,"garage","yard","False",15071.200000003,829,"True Belief","Start","Start","Implicit","shed","garage","False","False",11209.099999994
832,558,"1_tb_1_s_e_im",1,"critical",5,"basket","basket","True",28153.7000000002,832,"True Belief","Start","End","Implicit","box","basket","False","True",24979.5
835,508,"11_tb_1_s_e_ex",11,"critical",5,"backpack","OK","False",30296.1999998093,835,"True Belief","Start","End","Explicit","suitcase","backpack","False","False",2679.10000038147
838,463,"4_fb_1_e_e_ex",4,"critical",5,"shed","wall","False",16022,838,"False Belief","End","End","Explicit","shed","garage","False","False",2377
841,616,"8_tb_1_s_s_ex",8,"critical",5,"bedroom","GOOD","False",11598.9000000954,841,"True Belief","Start","Start","Explicit","hall","bedroom","False","False",1769
844,337,"6_tb_1_s_s_ex",6,"critical",5,"cabinet","cabinet","True",121409.099999905,844,"True Belief","Start","Start","Explicit","drawer","cabinet","False","True",15808.2999999523
847,623,"3_fb_1_s_s_im",3,"critical",5,"sink","SINK","True",8656,847,"False Belief","Start","Start","Implicit","sink","basket","True","False",30331
850,620,"6_fb_1_e_s_im",6,"critical",5,"drawer","drawer","True",5663.30000019073,850,"False Belief","End","Start","Implicit","drawer","cabinet","True","False",21853.5
853,541,"6_fb_1_e_e_ex",6,"critical",5,"drawer","table","False",61524.6999999881,853,"False Belief","End","End","Explicit","drawer","cabinet","False","False",1349.39999997616
856,596,"3_fb_1_s_s_im",3,"critical",5,"sink","basket","False",10073,856,"False Belief","Start","Start","Implicit","sink","basket","False","True",18529
859,668,"2_fb_1_s_e_im",2,"critical",5,"cupboard","cupboard","True",6488.09999999404,859,"False Belief","Start","End","Implicit","cupboard","fridge","True","False",12352
862,581,"10_fb_1_s_s_ex",10,"critical",5,"toolbox","questions","False",59710.4000000954,862,"False Belief","Start","Start","Explicit","toolbox","van","False","False",1120
865,358,"10_fb_1_e_s_im",10,"critical",5,"toolbox","toolbox","True",77637.8999998569,865,"False Belief","End","Start","Implicit","toolbox","van","True","False",61207.5
868,513,"5_tb_1_s_s_im",5,"critical",5,"study","study","True",8336.30000001192,868,"True Belief","Start","Start","Implicit","hall","study","False","True",38572
871,354,"8_fb_1_s_e_ex",8,"critical",5,"hall","bedroom","False",11825.1000001431,871,"False Belief","Start","End","Explicit","hall","bedroom","False","True",34297
874,260,"5_tb_1_s_s_im",5,"critical",5,"study","study","True",47349.1999999881,874,"True Belief","Start","Start","Implicit","hall","study","False","True",77067
877,619,"8_tb_1_e_e_im",8,"critical",5,"bedroom","bedroom","True",17589.6999999993,877,"True Belief","End","End","Implicit","hall","bedroom","False","True",12554
880,212,"9_tb_1_e_e_im",9,"critical",5,"drawer","drawer","True",18420.6999999285,880,"True Belief","End","End","Implicit","cupboard","drawer","False","True",27084.6000000238
883,580,"9_fb_1_s_s_ex",9,"critical",5,"cupboard","cupboard","True",7010.5,883,"False Belief","Start","Start","Explicit","cupboard","drawer","True","False",25693.9000000954
886,537,"3_tb_1_e_s_im",3,"critical",5,"basket","basket","True",53405.7999992371,886,"True Belief","End","Start","Implicit","sink","basket","False","True",33935.9000005722
889,502,"2_fb_1_e_s_ex",2,"critical",5,"cupboard","sandwich","False",59424,889,"False Belief","End","Start","Explicit","cupboard","fridge","False","False",34900
892,376,"11_fb_1_e_e_im",11,"critical",5,"suitcase","Train station","False",129860.700000048,892,"False Belief","End","End","Implicit","suitcase","backpack","False","False",27313.8999998569
895,458,"7_tb_1_s_s_im",7,"critical",5,"fridge","home","False",85087,895,"True Belief","Start","Start","Implicit","garage","fridge","False","False",13586
898,676,"9_fb_1_s_e_im",9,"critical",5,"cupboard"," Lisa is cooking dinner in the kitchen. She uses the grater and puts it away in the cupboard, then takes out the spatula from the drawer. She briefly leaves the kitchen, and while she is away, Robert moves the grater from the cupboard to the drawer. Lisa comes back and realizes she needs ","False",10302.3999999762,898,"False Belief","Start","End","Implicit","cupboard","drawer","False","False",2966.39999997616
901,684,"4_fb_1_s_s_ex",4,"critical",5,"shed","shed","True",2807.79999995232,901,"False Belief","Start","Start","Explicit","shed","garage","True","False",9014.69999998808
904,611,"9_tb_1_e_s_im",9,"critical",5,"drawer","kitchen","False",28291.7000002861,904,"True Belief","End","Start","Implicit","cupboard","drawer","False","False",12502
907,230,"9_tb_1_s_s_im",9,"critical",5,"drawer","kitchen","False",72229.3999996185,907,"True Belief","Start","Start","Implicit","cupboard","drawer","False","False",22632.2999997139
910,488,"11_fb_1_e_e_ex",11,"critical",5,"suitcase","suitcase","True",58131,910,"False Belief","End","End","Explicit","suitcase","backpack","True","False",20696
913,554,"2_fb_1_s_e_ex",2,"critical",5,"cupboard","yes","False",6515.10000038147,913,"False Belief","Start","End","Explicit","cupboard","fridge","False","False",5035.80000019073
916,617,"11_tb_1_s_s_ex",11,"critical",5,"backpack","backpack","True",29090.5999999046,916,"True Belief","Start","Start","Explicit","suitcase","backpack","False","True",5176.80000007153
919,656,"11_tb_1_s_e_ex",11,"critical",5,"backpack","NICKOLE","False",8623.40000000596,919,"True Belief","Start","End","Explicit","suitcase","backpack","False","False",1025.39999997616
922,624,"10_fb_1_s_s_ex",10,"critical",5,"toolbox","toolbox","True",23312.099999994,922,"False Belief","Start","Start","Explicit","toolbox","van","True","False",22066.900000006
925,630,"2_tb_1_e_s_ex",2,"critical",5,"fridge","fridge","True",6494,925,"True Belief","End","Start","Explicit","cupboard","fridge","False","True",29304.1000000238
928,347,"10_tb_1_s_s_im",10,"critical",5,"van","Van","True",16617,928,"True Belief","Start","Start","Implicit","toolbox","van","False","True",198563
931,598,"6_tb_1_s_e_ex",6,"critical",5,"cabinet","cabinet","True",4031.60000038147,931,"True Belief","Start","End","Explicit","drawer","cabinet","False","True",41550.5999994278
934,631,"11_fb_1_s_s_im",11,"critical",5,"suitcase","suitcase","True",9025.89999999851,934,"False Belief","Start","Start","Implicit","suitcase","backpack","True","False",23898.8999999985
937,500,"10_fb_1_s_s_im",10,"critical",5,"toolbox","shovel","False",85204.8999999762,937,"False Belief","Start","Start","Implicit","toolbox","van","False","False",2285
940,206,"2_tb_1_e_e_ex",2,"critical",5,"fridge","kitchen","False",60800,940,"True Belief","End","End","Explicit","cupboard","fridge","False","False",14812
943,585,"9_tb_1_e_s_ex",9,"critical",5,"drawer","Lisa is cooking dinner in the kitchen. She takes out a spatula from the drawer, then uses the grater and puts it away in the cupboard. She briefly leaves the kitchen, then comes back. She watches Robert move the grater to the drawer from the cupboard. Lisa realizes she needs to","False",3117,943,"True Belief","End","Start","Explicit","cupboard","drawer","False","False",10377.3999999985
946,614,"9_tb_1_s_e_ex",9,"critical",5,"drawer","he","False",25811,946,"True Belief","Start","End","Explicit","cupboard","drawer","False","False",1357.4000005722
949,501,"4_fb_1_e_e_ex",4,"critical",5,"shed","shed","True",100036.400000036,949,"False Belief","End","End","Explicit","shed","garage","True","False",15849.1000000238
952,197,"7_fb_1_e_s_im",7,"critical",5,"garage","fridge","False",17681.5,952,"False Belief","End","Start","Implicit","garage","fridge","False","True",54090.1000000238
955,176,"12_fb_1_s_s_ex",12,"critical",5,"stable","stable","True",143365.099999964,955,"False Belief","Start","Start","Explicit","stable","hut","True","False",28605
958,661,"1_tb_1_s_e_ex",1,"critical",5,"basket","basket","True",5312.5,958,"True Belief","Start","End","Explicit","box","basket","False","True",41455.0999999996
961,282,"8_fb_1_e_s_im",8,"critical",5,"hall","bedroom","False",52569.9000000022,961,"False Belief","End","Start","Implicit","hall","bedroom","False","True",52642.4000000022
964,395,"5_fb_1_e_e_im",5,"critical",5,"hall","HALL","True",28458.3000000119,964,"False Belief","End","End","Implicit","hall","study","True","False",47105.1999999881
967,703,"11_fb_1_e_e_ex",11,"critical",5,"suitcase","backpack","False",4572,967,"False Belief","End","End","Explicit","suitcase","backpack","False","True",687.999999999998
970,530,"10_tb_1_s_s_im",10,"critical",5,"van","toolbox","False",92016,970,"True Belief","Start","Start","Implicit","toolbox","van","True","False",3441
973,696,"7_fb_1_e_e_ex",7,"critical",5,"garage","5","False",2809.89999985695,973,"False Belief","End","End","Explicit","garage","fridge","False","False",864.800000190735
976,476,"3_fb_1_s_e_im",3,"critical",5,"sink","basket","False",57222,976,"False Belief","Start","End","Implicit","sink","basket","False","True",23280
979,199,"6_tb_1_e_s_ex",6,"critical",5,"cabinet","drawer","False",301569,979,"True Belief","End","Start","Explicit","drawer","cabinet","True","False",2150
982,628,"2_fb_1_e_e_ex",2,"critical",5,"cupboard","cupboard","True",8802.80000001192,982,"False Belief","End","End","Explicit","cupboard","fridge","True","False",22842.1999999881
985,645,"10_fb_1_s_e_im",10,"critical",5,"toolbox","van","False",11042.3000000119,985,"False Belief","Start","End","Implicit","toolbox","van","False","True",24591.799999997
988,681,"6_fb_1_e_e_im",6,"critical",5,"drawer","SLAP","False",9350.19999992847,988,"False Belief","End","End","Implicit","drawer","cabinet","False","False",993.600000023842
991,634,"11_tb_1_e_e_im",11,"critical",5,"backpack","backpack","True",6406,991,"True Belief","End","End","Implicit","suitcase","backpack","False","True",55152.5999999046
994,441,"1_fb_1_e_s_im",1,"critical",5,"box","shelf","False",9751.20000004768,994,"False Belief","End","Start","Implicit","box","basket","False","False",20398.2000000477
997,710,"8_tb_1_e_s_im",8,"critical",5,"bedroom","gch","False",2489,997,"True Belief","End","Start","Implicit","hall","bedroom","False","False",874
1000,454,"2_tb_1_e_e_im",2,"critical",5,"fridge","KITCHEN","False",155901.100000381,1000,"True Belief","End","End","Implicit","cupboard","fridge","False","False",5954.5
1003,647,"5_tb_1_e_s_ex",5,"critical",5,"study","study","True",6025.5,1003,"True Belief","End","Start","Explicit","hall","study","False","True",30748.6000000001
1006,603,"3_tb_1_e_e_ex",3,"critical",5,"basket","2","False",17537,1006,"True Belief","End","End","Explicit","sink","basket","False","False",7974
1009,592,"6_tb_1_e_s_ex",6,"critical",5,"cabinet","wall","False",3869,1009,"True Belief","End","Start","Explicit","drawer","cabinet","False","False",2696
1012,566,"9_tb_1_e_e_ex",9,"critical",5,"drawer","Cupboard","False",95983,1012,"True Belief","End","End","Explicit","cupboard","drawer","True","False",25576
1015,638,"4_tb_1_e_s_ex",4,"critical",5,"garage","shed","False",3477.20000004768,1015,"True Belief","End","Start","Explicit","shed","garage","True","False",61683.1999999285
1018,451,"9_tb_1_s_e_ex",9,"critical",5,"drawer","GARAGE","False",44295,1018,"True Belief","Start","End","Explicit","cupboard","drawer","False","False",5444
1021,718,"9_tb_1_s_e_ex",9,"critical",5,"drawer","kitchen","False",6139,1021,"True Belief","Start","End","Explicit","cupboard","drawer","False","False",931.09999999404
1024,528,"9_fb_1_s_s_im",9,"critical",5,"cupboard","home","False",70253.6999998093,1024,"False Belief","Start","Start","Implicit","cupboard","drawer","False","False",2865
1027,550,"2_tb_1_e_s_ex",2,"critical",5,"fridge","fridge","True",16504.6000000015,1027,"True Belief","End","Start","Explicit","cupboard","fridge","False","True",35658.799999997
1030,685,"7_tb_1_s_e_ex",7,"critical",5,"fridge","fridge","True",5542.5,1030,"True Belief","Start","End","Explicit","garage","fridge","False","True",18149.6000000238
1033,670,"12_fb_1_s_s_ex",12,"critical",5,"stable","volume","False",16675,1033,"False Belief","Start","Start","Explicit","stable","hut","False","False",22659
1036,688,"6_fb_1_s_s_ex",6,"critical",5,"drawer","drawer","True",3948,1036,"False Belief","Start","Start","Explicit","drawer","cabinet","True","False",36102.8000000045
1039,686,"6_tb_1_s_e_im",6,"critical",5,"cabinet","cabinet","True",16614,1039,"True Belief","Start","End","Implicit","drawer","cabinet","False","True",36933
1042,427,"9_fb_1_s_s_ex",9,"critical",5,"cupboard","cupboard","True",28021,1042,"False Belief","Start","Start","Explicit","cupboard","drawer","True","False",47894.5
1045,675,"1_tb_1_e_e_ex",1,"critical",5,"basket","bench","False",26615,1045,"True Belief","End","End","Explicit","box","basket","False","False",2850
1048,712,"8_tb_1_s_s_ex",8,"critical",5,"bedroom","1","False",10419.6999999285,1048,"True Belief","Start","Start","Explicit","hall","bedroom","False","False",476.399999976158
1051,418,"5_tb_1_e_e_ex",5,"critical",5,"study","study","True",54829.9000000358,1051,"True Belief","End","End","Explicit","hall","study","False","True",47083.1000000238
1054,588,"3_fb_1_s_e_im",3,"critical",5,"sink","sink into the basket","False",118559,1054,"False Belief","Start","End","Implicit","sink","basket","False","False",9147
1057,644,"7_fb_1_e_e_ex",7,"critical",5,"garage","garage","True",75943.1000003815,1057,"False Belief","End","End","Explicit","garage","fridge","True","False",2755.29999923706
1060,680,"12_fb_1_s_e_im",12,"critical",5,"stable","STABLE","True",34691,1060,"False Belief","Start","End","Implicit","stable","hut","True","False",8626
1063,662,"4_fb_1_e_s_im",4,"critical",5,"shed","yard","False",4789,1063,"False Belief","End","Start","Implicit","shed","garage","False","False",83344
1066,711,"4_tb_1_e_e_im",4,"critical",5,"garage","good","False",8113,1066,"True Belief","End","End","Implicit","shed","garage","False","False",1054
1069,731,"1_tb_1_e_s_im",1,"critical",5,"basket","king","False",3822.29999923706,1069,"True Belief","End","Start","Implicit","box","basket","False","False",433.5
1072,672,"4_tb_1_e_e_ex",4,"critical",5,"garage","shed","False",35371.7000000477,1072,"True Belief","End","End","Explicit","shed","garage","True","False",10442.1000001431
1075,323,"10_fb_1_s_e_im",10,"critical",5,"toolbox","toolbox","True",96822,1075,"False Belief","Start","End","Implicit","toolbox","van","True","False",16851.8000000119
1078,512,"4_fb_1_s_e_ex",4,"critical",5,"shed","footbal player","False",64190,1078,"False Belief","Start","End","Explicit","shed","garage","False","False",2247
1081,607,"5_fb_1_s_s_ex",5,"critical",5,"hall"," hand","False",10995,1081,"False Belief","Start","Start","Explicit","hall","study","False","False",879
1084,698,"10_fb_1_e_e_ex",10,"critical",5,"toolbox","hard","False",17779.6999999881,1084,"False Belief","End","End","Explicit","toolbox","van","False","False",7371.5
1087,633,"4_tb_1_e_e_im",4,"critical",5,"garage","garage","True",49148.5,1087,"True Belief","End","End","Implicit","shed","garage","False","True",8466.90000000596
1090,690,"10_tb_1_e_s_im",10,"critical",5,"van","DAY","False",12127,1090,"True Belief","End","Start","Implicit","toolbox","van","False","False",3489
1093,659,"11_tb_1_s_e_ex",11,"critical",5,"backpack","backpack","True",79058,1093,"True Belief","Start","End","Explicit","suitcase","backpack","False","True",15517
1096,572,"2_fb_1_e_s_ex",2,"critical",5,"cupboard","cupboard","True",46390.4000000358,1096,"False Belief","End","Start","Explicit","cupboard","fridge","True","False",31281.8000000119
1099,642,"5_fb_1_e_e_ex",5,"critical",5,"hall","hall","True",15772.1000000015,1099,"False Belief","End","End","Explicit","hall","study","True","False",24325.1999999993
1102,691,"2_tb_1_s_s_im",2,"critical",5,"fridge","fridge","True",8786.30000001192,1102,"True Belief","Start","Start","Implicit","cupboard","fridge","False","True",33622.0999999642
1105,667,"5_fb_1_e_s_ex",5,"critical",5,"hall","hall","True",15011,1105,"False Belief","End","Start","Explicit","hall","study","True","False",11359
1108,364,"10_fb_1_s_s_im",10,"critical",5,"toolbox","toolbox","True",17199.6999999881,1108,"False Belief","Start","Start","Implicit","toolbox","van","True","False",281785
1111,657,"8_tb_1_s_s_im",8,"critical",5,"bedroom","artist","False",5908.09999999404,1111,"True Belief","Start","Start","Implicit","hall","bedroom","False","False",4671.69999998808
1114,446,"10_tb_1_s_s_im",10,"critical",5,"van","van","True",6970.59999999404,1114,"True Belief","Start","Start","Implicit","toolbox","van","False","True",39282.2000000179
1117,745,"6_tb_1_e_e_ex",6,"critical",5,"cabinet","cabinet","True",4433,1117,"True Belief","End","End","Explicit","drawer","cabinet","False","True",12767
1120,327,"5_tb_1_e_s_im",5,"critical",5,"study","arrives","False",90444.6999999881,1120,"True Belief","End","Start","Implicit","hall","study","False","False",14857.5
1123,515,"7_fb_1_e_s_im",7,"critical",5,"garage","OK","False",27467.4000000954,1123,"False Belief","End","Start","Implicit","garage","fridge","False","False",1599.69999980927
1126,660,"8_tb_1_e_e_ex",8,"critical",5,"bedroom","good","False",37433.7999999523,1126,"True Belief","End","End","Explicit","hall","bedroom","False","False",26352.2999999523
1129,410,"2_fb_1_s_s_im",2,"critical",5,"cupboard","kitchen","False",65565,1129,"False Belief","Start","Start","Implicit","cupboard","fridge","False","False",22713
1132,704,"3_fb_1_s_s_ex",3,"critical",5,"sink","stain","False",7390,1132,"False Belief","Start","Start","Explicit","sink","basket","False","False",43275
1135,728,"12_tb_1_s_s_im",12,"critical",5,"hut","Hannah has just come back from a ride and is putting her horse away. She puts the saddle in the stable, then puts her backpack in the hut. Then she goes inside to have a bath. When, she finishes, she comes back. She watches Martin put the saddle in the hut instead of the stable. Hannah wants to ","False",4107.89999997616,1135,"True Belief","Start","Start","Implicit","stable","hut","False","False",2402.30000001192
1138,604,"4_tb_1_e_e_ex",4,"critical",5,"garage","catch","False",35108.5,1138,"True Belief","End","End","Explicit","shed","garage","False","False",35640.5999999046
1141,540,"2_tb_1_s_s_ex",2,"critical",5,"fridge","cupboard","False",9648.80000001192,1141,"True Belief","Start","Start","Explicit","cupboard","fridge","True","False",13660.8000000119
1144,587,"9_fb_1_s_e_im",9,"critical",5,"cupboard","kitchen","False",170667,1144,"False Belief","Start","End","Implicit","cupboard","drawer","False","False",895
1147,183,"7_fb_1_s_s_im",7,"critical",5,"garage","fridge","False",10666.7000000477,1147,"False Belief","Start","Start","Implicit","garage","fridge","False","True",51848.6000001431
1150,694,"5_tb_1_e_e_im",5,"critical",5,"study","study","True",10377.6999998093,1150,"True Belief","End","End","Implicit","hall","study","False","True",24584.1000001431
1153,713,"9_tb_1_e_s_im",9,"critical",5,"drawer","the drawer","False",6395.5,1153,"True Belief","End","Start","Implicit","cupboard","drawer","False","False",21102.5
1156,757,"8_tb_1_e_e_ex",8,"critical",5,"bedroom","5","False",2704,1156,"True Belief","End","End","Explicit","hall","bedroom","False","False",938
1159,653,"3_tb_1_e_e_im",3,"critical",5,"basket","sink","False",7797.69999998808,1159,"True Belief","End","End","Implicit","sink","basket","True","False",24280.5
1162,702,"8_fb_1_s_s_im",8,"critical",5,"hall"," painting","False",54459,1162,"False Belief","Start","Start","Implicit","hall","bedroom","False","False",1697.60000002384
1168,677,"4_tb_1_s_e_ex",4,"critical",5,"garage","yard","False",18623,1168,"True Belief","Start","End","Explicit","shed","garage","False","False",28274
1171,707,"9_fb_1_s_s_im",9,"critical",5,"cupboard","cupboard","True",16022.3999999762,1171,"False Belief","Start","Start","Implicit","cupboard","drawer","True","False",54791.3999999762
1174,683,"2_fb_1_e_s_im",2,"critical",5,"cupboard","cupboard","True",8341,1174,"False Belief","End","Start","Implicit","cupboard","fridge","True","False",31233
1177,727,"3_tb_1_s_e_im",3,"critical",5,"basket","basket","True",6390.5,1177,"True Belief","Start","End","Implicit","sink","basket","False","True",36114.7000000477
1180,687,"7_fb_1_s_s_ex",7,"critical",5,"garage","good","False",11265,1180,"False Belief","Start","Start","Explicit","garage","fridge","False","False",2722
1183,739,"4_tb_1_s_s_im",4,"critical",5,"garage","good","False",9044.20000004768,1183,"True Belief","Start","Start","Implicit","shed","garage","False","False",1043.19999980927
1186,772,"6_fb_1_e_s_ex",6,"critical",5,"drawer","ring","False",2999.69999980927,1186,"False Belief","End","Start","Explicit","drawer","cabinet","False","False",28.5999999046326
1189,747,"5_fb_1_s_s_im",5,"critical",5,"hall","hall","True",6937.60000000149,1189,"False Belief","Start","Start","Implicit","hall","study","True","False",30828.8999999985
1192,716,"1_tb_1_s_e_ex",1,"critical",5,"basket","1","False",2903.5,1192,"True Belief","Start","End","Explicit","box","basket","False","False",308.700000047684
1195,555,"6_tb_1_e_e_im",6,"critical",5,"cabinet","Ross  wanders","False",60671,1195,"True Belief","End","End","Implicit","drawer","cabinet","False","False",29530
1198,720,"4_tb_1_s_e_im",4,"critical",5,"garage","shed","False",9958.79999999702,1198,"True Belief","Start","End","Implicit","shed","garage","True","False",13708.700000003
1201,629,"7_tb_1_e_e_ex",7,"critical",5,"fridge","fridge","True",9727.5,1201,"True Belief","End","End","Explicit","garage","fridge","False","True",26395.6000000015
1204,729,"6_tb_1_e_e_im",6,"critical",5,"cabinet","DOCUMENT","False",19200.6000001431,1204,"True Belief","End","End","Implicit","drawer","cabinet","False","False",26175.6000001431
1207,218,"7_fb_1_s_e_im",7,"critical",5,"garage","snakes","False",43041,1207,"False Belief","Start","End","Implicit","garage","fridge","False","False",26119
1210,678,"10_fb_1_e_e_ex",10,"critical",5,"toolbox","toolbox","True",8945.5,1210,"False Belief","End","End","Explicit","toolbox","van","True","False",42145.7000007629
1213,738,"11_tb_1_e_s_im",11,"critical",5,"backpack","backpack","True",7729.69999980927,1213,"True Belief","End","Start","Implicit","suitcase","backpack","False","True",23144.5999999046
1216,700,"7_tb_1_e_s_im",7,"critical",5,"fridge","SOME SNAKS","False",14564.8000000119,1216,"True Belief","End","Start","Implicit","garage","fridge","False","False",9661.89999997616
1219,753,"5_tb_1_e_s_im",5,"critical",5,"study","Hall","False",19111.1000003815,1219,"True Belief","End","Start","Implicit","hall","study","True","False",2377.89999961853
1222,719,"6_fb_1_s_e_im",6,"critical",5,"drawer","DRAWER","True",29437.5,1222,"False Belief","Start","End","Implicit","drawer","cabinet","True","False",9587.5
1225,732,"11_fb_1_s_e_ex",11,"critical",5,"suitcase","out","False",20811,1225,"False Belief","Start","End","Explicit","suitcase","backpack","False","False",19461
1228,546,"5_fb_1_e_s_im",5,"critical",5,"hall","Seana","False",127759.5,1228,"False Belief","End","Start","Implicit","hall","study","False","False",21442
1231,669,"1_tb_1_e_s_ex",1,"critical",5,"basket","BOX","False",45884,1231,"True Belief","End","Start","Explicit","box","basket","True","False",6071
1234,769,"1_tb_1_s_e_ex",1,"critical",5,"basket","library","False",8055.40000009537,1234,"True Belief","Start","End","Explicit","box","basket","False","False",4907.5
1237,303,"8_tb_1_s_e_im",8,"critical",5,"bedroom","James","False",106321,1237,"True Belief","Start","End","Implicit","hall","bedroom","False","False",257931
1240,748,"12_tb_1_e_s_im",12,"critical",5,"hut","horse","False",7073,1240,"True Belief","End","Start","Implicit","stable","hut","False","False",17703
1243,574,"8_tb_1_s_e_im",8,"critical",5,"bedroom","hall","False",19499.700000003,1243,"True Belief","Start","End","Implicit","hall","bedroom","True","False",44883.8999999985
1246,559,"6_fb_1_e_s_ex",6,"critical",5,"drawer","drawer","True",68254.1000000238,1246,"False Belief","End","Start","Explicit","drawer","cabinet","True","False",201323.5
1249,736,"10_tb_1_e_e_ex",10,"critical",5,"van","HYU","False",8763,1249,"True Belief","End","End","Explicit","toolbox","van","False","False",1906
1252,551,"11_fb_1_e_s_ex",11,"critical",5,"suitcase","suitcase","True",8903.39999997616,1252,"False Belief","End","Start","Explicit","suitcase","backpack","True","False",100143
1255,743,"6_fb_1_s_s_ex",6,"critical",5,"drawer","drawer","True",4981.60000000149,1255,"False Belief","Start","Start","Explicit","drawer","cabinet","True","False",38188.4000000022
1258,734,"3_tb_1_e_s_im",3,"critical",5,"basket","Basket","True",9560.5,1258,"True Belief","End","Start","Implicit","sink","basket","False","True",20281.4000000358
1261,755,"5_tb_1_s_s_ex",5,"critical",5,"study","next","False",15725.4000000954,1261,"True Belief","Start","Start","Explicit","hall","study","False","False",1622.10000038147
1264,640,"10_tb_1_e_s_ex",10,"critical",5,"van","toolbox","False",65280,1264,"True Belief","End","Start","Explicit","toolbox","van","True","False",12731
1267,756,"10_tb_1_s_e_ex",10,"critical",5,"van","toolbox","False",8790.59999999776,1267,"True Belief","Start","End","Explicit","toolbox","van","True","False",23280.3999999985
1270,768,"10_fb_1_s_s_ex",10,"critical",5,"toolbox","toolbox","True",7814,1270,"False Belief","Start","Start","Explicit","toolbox","van","True","False",54770
1273,759,"1_fb_1_s_e_ex",1,"critical",5,"box","Box","True",7250,1273,"False Belief","Start","End","Explicit","box","basket","True","False",38377
1276,486,"10_fb_1_s_s_im",10,"critical",5,"toolbox","garage","False",52713,1276,"False Belief","Start","Start","Implicit","toolbox","van","False","False",2077.39999997616
1279,519,"5_tb_1_e_e_ex",5,"critical",5,"study","good ","False",20405.2999999523,1279,"True Belief","End","End","Explicit","hall","study","False","False",7105.29999995232
1282,740,"1_fb_1_s_e_im",1,"critical",5,"box","   ok","False",4971.5,1282,"False Belief","Start","End","Implicit","box","basket","False","False",22081.6999998093
1285,780,"2_fb_1_s_e_im",2,"critical",5,"cupboard","sandwitch","False",12099,1285,"False Belief","Start","End","Implicit","cupboard","fridge","False","False",10532
1288,639,"3_tb_1_s_e_ex",3,"critical",5,"basket","washer","False",22026.6000000238,1288,"True Belief","Start","End","Explicit","sink","basket","False","False",30683
1291,717,"6_tb_1_s_e_im",6,"critical",5,"cabinet","drawer","False",56995.3999999762,1291,"True Belief","Start","End","Implicit","drawer","cabinet","True","False",29248
1294,754,"5_fb_1_s_e_ex",5,"critical",5,"hall","home","False",31726,1294,"False Belief","Start","End","Explicit","hall","study","False","False",27794
1297,782,"10_tb_1_s_e_ex",10,"critical",5,"van","moment ","False",5495,1297,"True Belief","Start","End","Explicit","toolbox","van","False","False",7819
1300,802,"6_tb_1_e_e_ex",6,"critical",5,"cabinet","dh","False",1709.19999992847,1300,"True Belief","End","End","Explicit","drawer","cabinet","False","False",393.600000023842
1303,741,"4_fb_1_e_e_im",4,"critical",5,"shed","shed","True",7154.39999997616,1303,"False Belief","End","End","Implicit","shed","garage","True","False",66541.5999999642
1306,810,"12_tb_1_e_s_ex",12,"critical",5,"hut","ring","False",3072.19999885559,1306,"True Belief","End","Start","Explicit","stable","hut","False","False",16.7999992370605
1309,784,"11_fb_1_s_s_im",11,"critical",5,"suitcase","hand","False",9910,1309,"False Belief","Start","Start","Implicit","suitcase","backpack","False","False",1377
1312,742,"2_fb_1_s_e_ex",2,"critical",5,"cupboard","yes","False",30470.9000000954,1312,"False Belief","Start","End","Explicit","cupboard","fridge","False","False",1536
1315,370,"10_fb_1_e_s_ex",10,"critical",5,"toolbox","toolbox","True",336845,1315,"False Belief","End","Start","Explicit","toolbox","van","True","False",11688.6999998093
1318,654,"12_tb_1_e_e_ex",12,"critical",5,"hut","pace","False",108513,1318,"True Belief","End","End","Explicit","stable","hut","False","False",5421
1321,405,"9_tb_1_e_s_ex",9,"critical",5,"drawer","drawer","True",63113.5999984741,1321,"True Belief","End","Start","Explicit","cupboard","drawer","False","True",58056.8999996185
1324,805,"12_tb_1_s_s_ex",12,"critical",5,"hut","good ","False",12822.3999999762,1324,"True Belief","Start","Start","Explicit","stable","hut","False","False",768.799999952316
1327,749,"2_fb_1_s_s_ex",2,"critical",5,"cupboard","freezer","False",21683.299999997,1327,"False Belief","Start","Start","Explicit","cupboard","fridge","False","False",574
1330,602,"4_fb_1_e_e_ex",4,"critical",5,"shed","game","False",12590,1330,"False Belief","End","End","Explicit","shed","garage","False","False",32734
1333,735,"7_tb_1_s_e_ex",7,"critical",5,"fridge","ros","False",35463.5,1333,"True Belief","Start","End","Explicit","garage","fridge","False","False",1122.20000004768
1336,767,"2_fb_1_s_s_im",2,"critical",5,"cupboard","fridge","False",61417.3000001907,1336,"False Belief","Start","Start","Implicit","cupboard","fridge","False","True",12934.2000000477
1339,813,"8_tb_1_e_s_ex",8,"critical",5,"bedroom","bedroom","True",4516.10000000056,1339,"True Belief","End","Start","Explicit","hall","bedroom","False","True",12225.2999999998
1342,746,"3_fb_1_s_s_im",3,"critical",5,"sink","hiuhf","False",104371,1342,"False Belief","Start","Start","Implicit","sink","basket","False","False",2465.79999995232
1345,544,"6_tb_1_e_s_im",6,"critical",5,"cabinet","CABINET","True",186923,1345,"True Belief","End","Start","Implicit","drawer","cabinet","False","True",7422
1348,777,"6_fb_1_e_s_im",6,"critical",5,"drawer","study","False",15784.3999998569,1348,"False Belief","End","Start","Implicit","drawer","cabinet","False","False",24001.9000000954
1351,786,"8_tb_1_s_e_ex",8,"critical",5,"bedroom","bedroom","True",6475.10000002384,1351,"True Belief","Start","End","Explicit","hall","bedroom","False","True",37887.5999999046
1354,809,"5_fb_1_s_s_im",5,"critical",5,"hall","hall","True",5254.09999990463,1354,"False Belief","Start","Start","Implicit","hall","study","True","False",18917.5999999046
1357,797,"3_fb_1_e_s_ex",3,"critical",5,"sink","sink","True",4980.10000000056,1357,"False Belief","End","Start","Explicit","sink","basket","True","False",25130
1360,820,"11_tb_1_s_e_ex",11,"critical",5,"backpack","backpack","True",23342.5,1360,"True Belief","Start","End","Explicit","suitcase","backpack","False","True",14951.6000000238
1363,752,"7_tb_1_s_s_im",7,"critical",5,"fridge","grabs","False",7570,1363,"True Belief","Start","Start","Implicit","garage","fridge","False","False",118855
1366,635,"2_fb_1_s_s_ex",2,"critical",5,"cupboard","TABLE","False",13212.9000000954,1366,"False Belief","Start","Start","Explicit","cupboard","fridge","False","False",256403.199999809
1369,495,"4_fb_1_e_e_ex",4,"critical",5,"shed","yard","False",50505.7000000477,1369,"False Belief","End","End","Explicit","shed","garage","False","False",5932.20000004768
1372,800,"12_tb_1_s_e_im",12,"critical",5,"hut","hut","True",14485.5999999046,1372,"True Belief","Start","End","Implicit","stable","hut","False","True",29075.2999999523
1375,792,"9_tb_1_e_e_ex",9,"critical",5,"drawer","drawer","True",11880,1375,"True Belief","End","End","Explicit","cupboard","drawer","False","True",21744
1378,765,"5_fb_1_s_s_ex",5,"critical",5,"hall","hall","True",18014,1378,"False Belief","Start","Start","Explicit","hall","study","True","False",27369
1381,491,"10_tb_1_e_s_im",10,"critical",5,"van","    van","False",176073,1381,"True Belief","End","Start","Implicit","toolbox","van","False","False",1504
1384,794,"5_fb_1_e_e_ex",5,"critical",5,"hall","hall","True",9897.10000038147,1384,"False Belief","End","End","Explicit","hall","study","True","False",22843.5999999046
1387,770,"7_tb_1_s_e_im",7,"critical",5,"fridge","fridge","True",35622.2999999523,1387,"True Belief","Start","End","Implicit","garage","fridge","False","True",22171.2999999523
1390,799,"4_fb_1_e_e_im",4,"critical",5,"shed","shed","True",6946.29999995232,1390,"False Belief","End","End","Implicit","shed","garage","True","False",31223.8999999762
1393,783,"1_fb_1_s_e_im",1,"critical",5,"box","bench","False",7278.69999980927,1393,"False Belief","Start","End","Implicit","box","basket","False","False",560
1396,689,"10_tb_1_s_e_ex",10,"critical",5,"van","toolbox","False",88627,1396,"True Belief","Start","End","Explicit","toolbox","van","True","False",18402
1399,812,"10_tb_1_s_s_ex",10,"critical",5,"van","van","True",4972,1399,"True Belief","Start","Start","Explicit","toolbox","van","False","True",11351.0999999642
1402,818,"12_tb_1_s_s_im",12,"critical",5,"hut","hut","True",5283.19999998808,1402,"True Belief","Start","Start","Implicit","stable","hut","False","True",47005
1405,803,"11_fb_1_e_e_im",11,"critical",5,"suitcase","train","False",13939,1405,"False Belief","End","End","Implicit","suitcase","backpack","False","False",19416
1408,843,"12_tb_1_s_s_im",12,"critical",5,"hut","hut","True",5831,1408,"True Belief","Start","Start","Implicit","stable","hut","False","True",18092.8000000715
1411,819,"7_tb_1_s_s_ex",7,"critical",5,"fridge","fridge","True",25818,1411,"True Belief","Start","Start","Explicit","garage","fridge","False","True",18475
1414,726,"7_fb_1_e_s_ex",7,"critical",5,"garage","fridge","False",181610.599999905,1414,"False Belief","End","Start","Explicit","garage","fridge","False","True",6615
1417,561,"11_tb_1_e_s_ex",11,"critical",5,"backpack","i don't know ","False",53916.0999999046,1417,"True Belief","End","Start","Explicit","suitcase","backpack","False","False",2049.09999990463
1420,837,"2_tb_1_e_e_ex",2,"critical",5,"fridge","fridge","True",15583.3000000119,1420,"True Belief","End","End","Explicit","cupboard","fridge","False","True",22843.599999994
1423,835,"10_tb_1_e_e_im",10,"critical",5,"van","van","True",4751.5,1423,"True Belief","End","End","Implicit","toolbox","van","False","True",29693.5999999642
1426,613,"7_tb_1_e_e_im",7,"critical",5,"fridge","party","False",5521.79999995232,1426,"True Belief","End","End","Implicit","garage","fridge","False","False",328778.099999905
1429,825,"6_tb_1_e_e_im",6,"critical",5,"cabinet","cabinet.","False",6305,1429,"True Belief","End","End","Implicit","drawer","cabinet","False","False",30374
1432,845,"2_fb_1_s_s_ex",2,"critical",5,"cupboard","cupboard","True",7627,1432,"False Belief","Start","Start","Explicit","cupboard","fridge","True","False",31339
1435,730,"8_tb_1_e_e_im",8,"critical",5,"bedroom","hall","False",17027,1435,"True Belief","End","End","Implicit","hall","bedroom","True","False",69786
1438,855,"2_tb_1_s_e_im",2,"critical",5,"fridge","fridge","True",4810.5,1438,"True Belief","Start","End","Implicit","cupboard","fridge","False","True",30265.3000000119
1441,830,"11_fb_1_e_s_im",11,"critical",5,"suitcase","backpack","False",12183,1441,"False Belief","End","Start","Implicit","suitcase","backpack","False","True",59572
1444,867,"8_tb_1_s_e_ex",8,"critical",5,"bedroom","bedroom","True",9069,1444,"True Belief","Start","End","Explicit","hall","bedroom","False","True",35787
1447,834,"8_tb_1_e_e_ex",8,"critical",5,"bedroom","Passage","False",18855.5,1447,"True Belief","End","End","Explicit","hall","bedroom","False","False",1703.90000009537
1450,579,"3_tb_1_s_e_ex",3,"critical",5,"basket","YES","False",3105.5,1450,"True Belief","Start","End","Explicit","sink","basket","False","False",3540.89999985695
1453,872,"9_tb_1_s_s_im",9,"critical",5,"drawer","kitchen","False",8913.20000004768,1453,"True Belief","Start","Start","Implicit","cupboard","drawer","False","False",5509.10000014305
1456,859,"1_tb_1_e_e_im",1,"critical",5,"basket","stepped","False",6913.09999990463,1456,"True Belief","End","End","Implicit","box","basket","False","False",1487.70000004768
1459,880,"10_fb_1_s_e_ex",10,"critical",5,"toolbox","toolbox","True",4297,1459,"False Belief","Start","End","Explicit","toolbox","van","True","False",21012
1462,821,"1_fb_1_e_s_ex",1,"critical",5,"box","basket","False",21026,1462,"False Belief","End","Start","Explicit","box","basket","False","True",14624
1465,881,"3_fb_1_e_s_ex",3,"critical",5,"sink","sink","True",15615.5,1465,"False Belief","End","Start","Explicit","sink","basket","True","False",13798.0999999046
1468,864,"7_fb_1_s_e_ex",7,"critical",5,"garage","garage","True",11421.2999999523,1468,"False Belief","Start","End","Explicit","garage","fridge","True","False",27196.2999999523
1471,839,"6_tb_1_e_e_ex",6,"critical",5,"cabinet","drawer.","False",7691.30000001192,1471,"True Belief","End","End","Explicit","drawer","cabinet","False","False",29045.4000000358
1474,836,"3_fb_1_e_s_im",3,"critical",5,"sink","dryer","False",15531.7000000002,1474,"False Belief","End","Start","Implicit","sink","basket","False","False",24595.2999999998
1477,887,"3_tb_1_e_e_ex",3,"critical",5,"basket","basket","True",6533,1477,"True Belief","End","End","Explicit","sink","basket","False","True",21935
1480,824,"4_tb_1_e_s_im",4,"critical",5,"garage","garage","True",19182,1480,"True Belief","End","Start","Implicit","shed","garage","False","True",53774
1483,863,"7_tb_1_s_s_im",7,"critical",5,"fridge","fridge","True",12474.8999996185,1483,"True Belief","Start","Start","Implicit","garage","fridge","False","True",21177.8000001907
1486,899,"10_tb_1_s_e_ex",10,"critical",5,"van","working","False",9271,1486,"True Belief","Start","End","Explicit","toolbox","van","False","False",7420
1489,714,"2_fb_1_e_s_ex",2,"critical",5,"cupboard","cupboard","True",31095,1489,"False Belief","End","Start","Explicit","cupboard","fridge","True","False",217333
1492,856,"5_fb_1_e_s_im",5,"critical",5,"hall","hall","True",8547.89999997616,1492,"False Belief","End","Start","Implicit","hall","study","True","False",45103.6999999881
1495,791,"9_fb_1_e_s_im",9,"critical",5,"cupboard","closet","False",20085.1000000089,1495,"False Belief","End","Start","Implicit","cupboard","drawer","False","False",43928.900000006
1498,838,"7_fb_1_s_s_im",7,"critical",5,"garage","fridge","False",8348.90000000596,1498,"False Belief","Start","Start","Implicit","garage","fridge","False","True",39156.7000000179
1501,882,"4_fb_1_s_s_im",4,"critical",5,"shed","ground","False",6629.5,1501,"False Belief","Start","Start","Implicit","shed","garage","False","False",5800.5
1504,902,"11_tb_1_s_e_ex",11,"critical",5,"backpack","suitcase","False",12818.4000000954,1504,"True Belief","Start","End","Explicit","suitcase","backpack","True","False",4695.90000009537
1507,848,"5_tb_1_e_e_im",5,"critical",5,"study","hall","False",17084,1507,"True Belief","End","End","Implicit","hall","study","True","False",18346
1510,924,"5_tb_1_e_s_im",5,"critical",5,"study","study","True",3866.60000002384,1510,"True Belief","End","Start","Implicit","hall","study","False","True",14466.6999999285
1513,868,"8_tb_1_s_e_im",8,"critical",5,"bedroom","bedroom","True",12173.8999999762,1513,"True Belief","Start","End","Implicit","hall","bedroom","False","True",36016.5
1516,858,"1_tb_1_s_s_im",1,"critical",5,"basket","have","False",45911,1516,"True Belief","Start","Start","Implicit","box","basket","False","False",905
1519,850,"3_tb_1_e_s_ex",3,"critical",5,"basket","basket","True",9163.5,1519,"True Belief","End","Start","Explicit","sink","basket","False","True",60038.5999999046
1522,857,"4_fb_1_e_s_im",4,"critical",5,"shed","garage. ","False",14765,1522,"False Belief","End","Start","Implicit","shed","garage","False","False",41852
1525,886,"5_fb_1_s_s_ex",5,"critical",5,"hall","hallway","False",6123.09999999404,1525,"False Belief","Start","Start","Explicit","hall","study","False","False",21638.8000000119
1528,901,"2_tb_1_s_e_ex",2,"critical",5,"fridge","fridge","True",6987.80000001192,1528,"True Belief","Start","End","Explicit","cupboard","fridge","False","True",22846.400000006
1531,844,"9_tb_1_s_e_ex",9,"critical",5,"drawer","cupboard","False",65003.1999998093,1531,"True Belief","Start","End","Explicit","cupboard","drawer","True","False",14546.1999998093
1534,923,"6_fb_1_e_s_ex",6,"critical",5,"drawer","drawer","True",4989.40000000596,1534,"False Belief","End","Start","Explicit","drawer","cabinet","True","False",8675.80000001192
1537,927,"9_tb_1_e_s_im",9,"critical",5,"drawer","tag","False",9914.10000002384,1537,"True Belief","End","Start","Implicit","cupboard","drawer","False","False",980.400000035763
1540,909,"12_tb_1_e_s_ex",12,"critical",5,"hut","OK","False",10924.3999998569,1540,"True Belief","End","Start","Explicit","stable","hut","False","False",465.300000190735
1543,921,"3_tb_1_s_s_ex",3,"critical",5,"basket","basket","True",6358.80000001192,1543,"True Belief","Start","Start","Explicit","sink","basket","False","True",17313
1546,931,"11_tb_1_e_s_ex",11,"critical",5,"backpack","backpack","True",12094.3000000715,1546,"True Belief","End","Start","Explicit","suitcase","backpack","False","True",4126.70000004768
1549,915,"12_tb_1_e_s_ex",12,"critical",5,"hut","hut","True",22349.1000001431,1549,"True Belief","End","Start","Explicit","stable","hut","False","True",14546.0999999046
1552,862,"6_tb_1_e_e_ex",6,"critical",5,"cabinet","cabinet","True",7759.19999980927,1552,"True Belief","End","End","Explicit","drawer","cabinet","False","True",24133.5
1555,898,"2_fb_1_e_s_ex",2,"critical",5,"cupboard","cupboard","True",8386.80000000075,1555,"False Belief","End","Start","Explicit","cupboard","fridge","True","False",39076.700000003
1558,919,"5_tb_1_s_e_im",5,"critical",5,"study","bathroom","False",9808,1558,"True Belief","Start","End","Implicit","hall","study","False","False",6271
1561,841,"12_fb_1_s_e_im",12,"critical",5,"stable","stable","True",21594,1561,"False Belief","Start","End","Implicit","stable","hut","True","False",42257
1564,861,"2_tb_1_s_s_im",2,"critical",5,"fridge","cupboard","False",63745,1564,"True Belief","Start","Start","Implicit","cupboard","fridge","True","False",21338
1567,939,"8_tb_1_e_s_im",8,"critical",5,"bedroom","bedroom","True",12431,1567,"True Belief","End","Start","Implicit","hall","bedroom","False","True",22328
1570,840,"12_tb_1_e_s_im",12,"critical",5,"hut","hut","True",12089.8000000007,1570,"True Belief","End","Start","Implicit","stable","hut","False","True",52096.6999999993
1573,911,"9_tb_1_e_e_ex",9,"critical",5,"drawer","drawer","True",18610.6999998093,1573,"True Belief","End","End","Explicit","cupboard","drawer","False","True",28871.0999999046
1576,885,"10_tb_1_e_e_ex",10,"critical",5,"van","toolbox","False",66600.8000011444,1576,"True Belief","End","End","Explicit","toolbox","van","True","False",13545.6000003815
1579,947,"3_fb_1_e_e_ex",3,"critical",5,"sink","sink","True",4850,1579,"False Belief","End","End","Explicit","sink","basket","True","False",34470
1582,925,"10_tb_1_s_s_im",10,"critical",5,"van","van","True",5977.69999998808,1582,"True Belief","Start","Start","Implicit","toolbox","van","False","True",24164.7999999523
1585,944,"10_fb_1_e_s_ex",10,"critical",5,"toolbox","spread cement","False",18038,1585,"False Belief","End","Start","Explicit","toolbox","van","False","False",14962
1588,974,"5_tb_1_e_e_im",5,"critical",5,"study","study","True",7659,1588,"True Belief","End","End","Implicit","hall","study","False","True",14066
1591,967,"5_fb_1_e_s_ex",5,"critical",5,"hall","work","False",7787,1591,"False Belief","End","Start","Explicit","hall","study","False","False",5564
1594,889,"5_fb_1_e_e_im",5,"critical",5,"hall","hall","True",17493.2999997139,1594,"False Belief","End","End","Implicit","hall","study","True","False",34199.3999996185
1597,948,"1_tb_1_e_s_ex",1,"critical",5,"basket","basket","True",6279.5,1597,"True Belief","End","Start","Explicit","box","basket","False","True",31646.2999999523
1600,877,"11_fb_1_e_e_im",11,"critical",5,"suitcase","suitcase","True",8060.69999980927,1600,"False Belief","End","End","Implicit","suitcase","backpack","True","False",29779.6999998093
1603,897,"1_fb_1_s_s_ex",1,"critical",5,"box","box.","False",16482.9000000358,1603,"False Belief","Start","Start","Explicit","box","basket","False","False",22993.5
1606,907,"11_tb_1_e_e_ex",11,"critical",5,"backpack","backpack","True",29849.7000000477,1606,"True Belief","End","End","Explicit","suitcase","backpack","False","True",37488.2000000477
1609,894,"8_fb_1_e_e_ex",8,"critical",5,"hall","hall","True",6205.80000001192,1609,"False Belief","End","End","Explicit","hall","bedroom","True","False",92871.400000006
1612,615,"4_tb_1_s_e_ex",4,"critical",5,"garage","YES","False",151518,1612,"True Belief","Start","End","Explicit","shed","garage","False","False",6794
1615,876,"10_fb_1_e_s_ex",10,"critical",5,"toolbox","toolbox.","False",15597.4000000954,1615,"False Belief","End","Start","Explicit","toolbox","van","False","False",41433.5999999046
1618,938,"11_tb_1_s_e_ex",11,"critical",5,"backpack","suitcase","False",4370.70000000019,1618,"True Belief","Start","End","Explicit","suitcase","backpack","True","False",46820.7000000002
1621,981,"10_tb_1_s_s_ex",10,"critical",5,"van","van","True",7850.59999996424,1621,"True Belief","Start","Start","Explicit","toolbox","van","False","True",20557.8999999762
1624,920,"8_tb_1_s_e_im",8,"critical",5,"bedroom","garden","False",65826,1624,"True Belief","Start","End","Implicit","hall","bedroom","False","False",10189
1627,952,"11_fb_1_e_s_ex",11,"critical",5,"suitcase","COMPETION","False",20385,1627,"False Belief","End","Start","Explicit","suitcase","backpack","False","False",1703.39999961853
1630,906,"5_tb_1_s_e_ex",5,"critical",5,"study","YES","False",10229.3000001907,1630,"True Belief","Start","End","Explicit","hall","study","False","False",13505.7000002861
1633,988,"12_fb_1_s_s_im",12,"critical",5,"stable"," the","False",9746,1633,"False Belief","Start","Start","Implicit","stable","hut","False","False",867
1636,995,"7_fb_1_e_s_im",7,"critical",5,"garage","fridge","False",9600.70000004768,1636,"False Belief","End","Start","Implicit","garage","fridge","False","True",8972.19999980927
1639,842,"5_tb_1_s_e_im",5,"critical",5,"study","study","True",7916.89999999106,1639,"True Belief","Start","End","Implicit","hall","study","False","True",26344.1999999881
1642,946,"8_fb_1_s_s_im",8,"critical",5,"hall","hall","True",19518,1642,"False Belief","Start","Start","Implicit","hall","bedroom","True","False",8876
1645,966,"3_tb_1_e_s_im",3,"critical",5,"basket","sink","False",8627.59999990463,1645,"True Belief","End","Start","Implicit","sink","basket","True","False",15363
1648,890,"9_fb_1_e_e_im",9,"critical",5,"cupboard","Drawer","False",41915,1648,"False Belief","End","End","Implicit","cupboard","drawer","False","True",18409
1651,965,"5_tb_1_s_s_im",5,"critical",5,"study","study","True",10745.2000002861,1651,"True Belief","Start","Start","Implicit","hall","study","False","True",17277.1999998093
1654,846,"9_tb_1_s_e_im",9,"critical",5,"drawer","cupboard","False",80228.200000003,1654,"True Belief","Start","End","Implicit","cupboard","drawer","True","False",14174.799999997
1657,893,"3_fb_1_e_s_im",3,"critical",5,"sink","sink","True",20462,1657,"False Belief","End","Start","Implicit","sink","basket","True","False",19514
1660,934,"10_fb_1_s_s_ex",10,"critical",5,"toolbox","BATHROOM","False",15569,1660,"False Belief","Start","Start","Explicit","toolbox","van","False","False",1787
1663,997,"8_tb_1_s_s_im",8,"critical",5,"bedroom","bathroom","False",9214.5,1663,"True Belief","Start","Start","Implicit","hall","bedroom","False","False",14184.3999999999
1666,852,"3_fb_1_e_e_ex",3,"critical",5,"sink","sink","True",29075.6999999993,1666,"False Belief","End","End","Explicit","sink","basket","True","False",22154.8999999985
1669,928,"6_fb_1_s_e_im",6,"critical",5,"drawer","drawer","True",14912.1999999881,1669,"False Belief","Start","End","Implicit","drawer","cabinet","True","False",33019
1672,945,"3_fb_1_e_e_im",3,"critical",5,"sink","sink","True",22637,1672,"False Belief","End","End","Implicit","sink","basket","True","False",32618
1675,708,"3_tb_1_s_e_ex",3,"critical",5,"basket","SINK AND PICKS UP A SWEATER FROM A BASKET","False",58384,1675,"True Belief","Start","End","Explicit","sink","basket","False","False",68660
1678,990,"10_tb_1_e_s_im",10,"critical",5,"van","toolbox","False",6061.60000002384,1678,"True Belief","End","Start","Implicit","toolbox","van","True","False",33667.6999999285
1681,932,"6_fb_1_s_s_im",6,"critical",5,"drawer","drawer","True",11034.200000003,1681,"False Belief","Start","Start","Implicit","drawer","cabinet","True","False",23155.5
1684,960,"2_tb_1_s_e_ex",2,"critical",5,"fridge","fridge","True",14263.0999999978,1684,"True Belief","Start","End","Explicit","cupboard","fridge","False","True",21064.6999999993
1687,996,"12_fb_1_s_e_ex",12,"critical",5,"stable","stable","True",15697,1687,"False Belief","Start","End","Explicit","stable","hut","True","False",8489
1690,1001,"10_tb_1_s_e_im",10,"critical",5,"van","van","True",11255.5999999046,1690,"True Belief","Start","End","Implicit","toolbox","van","False","True",32590.5
1693,785,"9_fb_1_e_e_im",9,"critical",5,"cupboard","cupboard","True",134627.600000381,1693,"False Belief","End","End","Implicit","cupboard","drawer","True","False",81039.1999998093
1696,1010,"1_fb_1_e_e_im",1,"critical",5,"box","box","True",4409,1696,"False Belief","End","End","Implicit","box","basket","True","False",11700.5
1699,849,"8_fb_1_e_s_ex",8,"critical",5,"hall","hall","True",7535,1699,"False Belief","End","Start","Explicit","hall","bedroom","True","False",33871
1702,913,"3_tb_1_s_s_ex",3,"critical",5,"basket","basket","True",11133.6000000238,1702,"True Belief","Start","Start","Explicit","sink","basket","False","True",52770.6999999881
1705,999,"12_fb_1_e_s_ex",12,"critical",5,"stable","stable","True",6031.69999992847,1705,"False Belief","End","Start","Explicit","stable","hut","True","False",27446.1999999285
1708,940,"12_tb_1_e_s_ex",12,"critical",5,"hut","hut","True",21259.2999999821,1708,"True Belief","End","Start","Explicit","stable","hut","False","True",26301.1999999881
1711,1005,"12_tb_1_s_s_ex",12,"critical",5,"hut","hut","True",6664.89999999106,1711,"True Belief","Start","Start","Explicit","stable","hut","False","True",34414.1000000089
1714,953,"12_tb_1_e_s_im",12,"critical",5,"hut","hut","True",20052.8999999762,1714,"True Belief","End","Start","Implicit","stable","hut","False","True",22094.8999999762
1717,958,"8_fb_1_s_s_ex",8,"critical",5,"hall","hall","True",5926.19999980927,1717,"False Belief","Start","Start","Explicit","hall","bedroom","True","False",86569.0999999046
1720,1011,"12_fb_1_e_e_ex",12,"critical",5,"stable","stable","True",8513.10000002384,1720,"False Belief","End","End","Explicit","stable","hut","True","False",25995.3000000715
1723,961,"4_fb_1_s_e_im",4,"critical",5,"shed","shed","True",7528.60000000894,1723,"False Belief","Start","End","Implicit","shed","garage","True","False",14877.400000006
1726,1009,"12_fb_1_e_s_im",12,"critical",5,"stable","hut","False",6792.70000000298,1726,"False Belief","End","Start","Implicit","stable","hut","False","True",16773
1729,895,"8_fb_1_s_e_im",8,"critical",5,"hall","bedroom","False",35806,1729,"False Belief","Start","End","Implicit","hall","bedroom","False","True",6603
1732,976,"2_fb_1_s_e_ex",2,"critical",5,"cupboard","cupboard","True",11341.7550000013,1732,"False Belief","Start","End","Explicit","cupboard","fridge","True","False",44917.5300000061
1735,993,"10_tb_1_e_e_im",10,"critical",5,"van","van","True",19630.2999999523,1735,"True Belief","End","End","Implicit","toolbox","van","False","True",14286.4000000954
1738,1007,"5_fb_1_s_e_im",5,"critical",5,"hall","hall.","False",41555,1738,"False Belief","Start","End","Implicit","hall","study","False","False",20174
1741,971,"11_fb_1_e_e_ex",11,"critical",5,"suitcase","suitcase","True",11888.3000000045,1741,"False Belief","End","End","Explicit","suitcase","backpack","True","False",24210.3999999985
1744,1022,"7_fb_1_s_s_im",7,"critical",5,"garage","garage","True",9211.5,1744,"False Belief","Start","Start","Implicit","garage","fridge","True","False",19334.3999999985
1747,951,"12_tb_1_e_e_im",12,"critical",5,"hut","stable","False",15302.7999999523,1747,"True Belief","End","End","Implicit","stable","hut","True","False",11636.8000001907
1750,1021,"8_tb_1_e_s_im",8,"critical",5,"bedroom","bedroom","True",9192,1750,"True Belief","End","Start","Implicit","hall","bedroom","False","True",60356
1753,968,"3_fb_1_s_e_ex",3,"critical",5,"sink","sink","True",8877.5,1753,"False Belief","Start","End","Explicit","sink","basket","True","False",29910.5
1756,991,"10_tb_1_e_s_ex",10,"critical",5,"van","van","True",10893.1000000238,1756,"True Belief","End","Start","Explicit","toolbox","van","False","True",53201.7000000477
1759,1006,"12_fb_1_s_e_im",12,"critical",5,"stable","stable","True",10343.6000000238,1759,"False Belief","Start","End","Implicit","stable","hut","True","False",29684.3999999762
1762,1051,"4_fb_1_s_s_im",4,"critical",5,"shed","garage","False",20745.3999998569,1762,"False Belief","Start","Start","Implicit","shed","garage","False","True",10280.5999999046
1765,930,"7_fb_1_s_e_ex",7,"critical",5,"garage","fridge. ","False",36111,1765,"False Belief","Start","End","Explicit","garage","fridge","False","False",37056
1768,933,"4_fb_1_e_s_im",4,"critical",5,"shed","shed","True",87358,1768,"False Belief","End","Start","Implicit","shed","garage","True","False",20489
1771,1003,"6_tb_1_s_e_ex",6,"critical",5,"cabinet","Yeah","False",12389,1771,"True Belief","Start","End","Explicit","drawer","cabinet","False","False",1825
1774,954,"12_tb_1_e_e_im",12,"critical",5,"hut","stable","False",32642,1774,"True Belief","End","End","Implicit","stable","hut","True","False",32130
1777,941,"8_tb_1_e_s_ex",8,"critical",5,"bedroom","hall","False",68857.8000000119,1777,"True Belief","End","Start","Explicit","hall","bedroom","True","False",49114.3999999911
1780,984,"10_fb_1_e_s_im",10,"critical",5,"toolbox","master bedroom","False",19024,1780,"False Belief","End","Start","Implicit","toolbox","van","False","False",1228.90000009537
1783,973,"5_tb_1_e_s_im",5,"critical",5,"study","study","True",20407.6999999881,1783,"True Belief","End","Start","Implicit","hall","study","False","True",46851.3999999762
1786,1032,"10_fb_1_e_s_ex",10,"critical",5,"toolbox","toolbox","True",5052.59999999404,1786,"False Belief","End","Start","Explicit","toolbox","van","True","False",29188
1789,1048,"3_tb_1_e_s_ex",3,"critical",5,"basket","sink","False",18260,1789,"True Belief","End","Start","Explicit","sink","basket","True","False",10836
1792,914,"10_tb_1_s_e_im",10,"critical",5,"van","toolbox","False",64169,1792,"True Belief","Start","End","Implicit","toolbox","van","True","False",35955
1795,998,"9_fb_1_s_s_ex",9,"critical",5,"cupboard","drawer","False",11651.599999994,1795,"False Belief","Start","Start","Explicit","cupboard","drawer","False","True",23637
1798,908,"12_tb_1_s_s_im",12,"critical",5,"hut","stable","False",9061.5,1798,"True Belief","Start","Start","Implicit","stable","hut","True","False",163670.400001526
1801,926,"2_tb_1_s_s_im",2,"critical",5,"fridge","cupboard","False",95728,1801,"True Belief","Start","Start","Implicit","cupboard","fridge","True","False",9811
1804,1039,"5_fb_1_s_s_ex",5,"critical",5,"hall","hall","True",7022.19999998808,1804,"False Belief","Start","Start","Explicit","hall","study","True","False",22329.4000000358
1807,978,"2_tb_1_e_e_im",2,"critical",5,"fridge","refrigerator.","False",52713.8000000119,1807,"True Belief","End","End","Implicit","cupboard","fridge","False","False",31973.900000006
1810,1017,"11_fb_1_s_s_im",11,"critical",5,"suitcase","suitcase","True",38715,1810,"False Belief","Start","Start","Implicit","suitcase","backpack","True","False",55747
1813,814,"3_fb_1_e_e_ex",3,"critical",5,"sink","STAIN","False",45791.900000006,1813,"False Belief","End","End","Explicit","sink","basket","False","False",6002.5
1816,1025,"4_tb_1_e_s_im",4,"critical",5,"garage","garage","True",7513,1816,"True Belief","End","Start","Implicit","shed","garage","False","True",79149
1819,1047,"1_fb_1_s_e_im",1,"critical",5,"box","box","True",8463.59999990463,1819,"False Belief","Start","End","Implicit","box","basket","True","False",19017.0999999046
1822,1012,"3_tb_1_e_s_ex",3,"critical",5,"basket","basket","True",4908.90000003576,1822,"True Belief","End","Start","Explicit","sink","basket","False","True",78121.5
1825,987,"12_tb_1_e_e_ex",12,"critical",5,"hut","i am happy","False",71254,1825,"True Belief","End","End","Explicit","stable","hut","False","False",1216
1828,957,"6_fb_1_s_e_ex",6,"critical",5,"drawer","cabinet","False",24828,1828,"False Belief","Start","End","Explicit","drawer","cabinet","False","True",36938
1831,1019,"10_tb_1_s_s_im",10,"critical",5,"van","van","True",10861,1831,"True Belief","Start","Start","Implicit","toolbox","van","False","True",28046
1834,962,"5_fb_1_e_s_im",5,"critical",5,"hall","no","False",26443.6999998093,1834,"False Belief","End","Start","Implicit","hall","study","False","False",45524.7999997139
1837,1061,"7_tb_1_s_e_im",7,"critical",5,"fridge","fridge","True",7526,1837,"True Belief","Start","End","Implicit","garage","fridge","False","True",27161
1840,1030,"8_tb_1_e_s_ex",8,"critical",5,"bedroom","bedroom","True",20030.1000000238,1840,"True Belief","End","Start","Explicit","hall","bedroom","False","True",26459.8000000119
1843,916,"9_fb_1_s_e_ex",9,"critical",5,"cupboard","cupboard","True",19968.3999996185,1843,"False Belief","Start","End","Explicit","cupboard","drawer","True","False",47012.5
1846,1036,"8_fb_1_e_e_ex",8,"critical",5,"hall","hall","True",28968.7000007629,1846,"False Belief","End","End","Explicit","hall","bedroom","True","False",23688
1849,1088,"1_tb_1_e_e_im",1,"critical",5,"basket","basket","True",4849,1849,"True Belief","End","End","Implicit","box","basket","False","True",23322
1852,1014,"9_tb_1_e_s_im",9,"critical",5,"drawer","drawer","True",11649,1852,"True Belief","End","Start","Implicit","cupboard","drawer","False","True",27300
1855,1058,"2_tb_1_s_e_im",2,"critical",5,"fridge","fridge","True",6257,1855,"True Belief","Start","End","Implicit","cupboard","fridge","False","True",17361
1858,975,"7_tb_1_e_s_im",7,"critical",5,"fridge","HOME","False",87358,1858,"True Belief","End","Start","Implicit","garage","fridge","False","False",1277
1861,1062,"5_fb_1_e_e_ex",5,"critical",5,"hall","hall","True",13081.3000000119,1861,"False Belief","End","End","Explicit","hall","study","True","False",44693.5
1864,1069,"11_fb_1_s_e_ex",11,"critical",5,"suitcase","suitcase","True",14443,1864,"False Belief","Start","End","Explicit","suitcase","backpack","True","False",21141
1867,1015,"2_tb_1_e_e_ex",2,"critical",5,"fridge","fridge","True",10039.5,1867,"True Belief","End","End","Explicit","cupboard","fridge","False","True",51764
1870,1050,"1_tb_1_e_s_im",1,"critical",5,"basket","basket","True",13874,1870,"True Belief","End","Start","Implicit","box","basket","False","True",42224.200000003
1873,1080,"4_fb_1_e_e_im",4,"critical",5,"shed","shed.","False",9435.59999990463,1873,"False Belief","End","End","Implicit","shed","garage","False","False",21161.0999999046
1876,1018,"6_tb_1_s_s_ex",6,"critical",5,"cabinet","drawer.","False",13787,1876,"True Belief","Start","Start","Explicit","drawer","cabinet","False","False",48459
1879,1023,"8_fb_1_e_s_ex",8,"critical",5,"hall","HALL","True",125847,1879,"False Belief","End","Start","Explicit","hall","bedroom","True","False",6344
1882,1029,"1_tb_1_e_e_im",1,"critical",5,"basket","basket","True",22427.0999999046,1882,"True Belief","End","End","Implicit","box","basket","False","True",27095.5999999046
1885,900,"8_fb_1_s_e_ex",8,"critical",5,"hall","hall","True",39830,1885,"False Belief","Start","End","Explicit","hall","bedroom","True","False",23674
1888,1079,"2_tb_1_e_s_im",2,"critical",5,"fridge","YES","False",10170,1888,"True Belief","End","Start","Implicit","cupboard","fridge","False","False",1434.89999961853
1891,1024,"6_tb_1_e_s_ex",6,"critical",5,"cabinet","cabinet","True",32228.9000000022,1891,"True Belief","End","Start","Explicit","drawer","cabinet","False","True",38671.8999999985
1894,1090,"5_fb_1_s_s_im",5,"critical",5,"hall","seana","False",18672.3999999762,1894,"False Belief","Start","Start","Implicit","hall","study","False","False",9890
1897,875,"11_tb_1_s_s_im",11,"critical",5,"backpack","REVIEW BOARD","False",97935,1897,"True Belief","Start","Start","Implicit","suitcase","backpack","False","False",5087
1900,1035,"8_tb_1_e_s_ex",8,"critical",5,"bedroom","hall","False",9276,1900,"True Belief","End","Start","Explicit","hall","bedroom","True","False",46791
1903,1065,"11_fb_1_s_e_im",11,"critical",5,"suitcase","suitcase","True",30401.6000000238,1903,"False Belief","Start","End","Implicit","suitcase","backpack","True","False",20023.8000000119
1906,936,"9_tb_1_s_s_im",9,"critical",5,"drawer","drawer","True",8774.52500000072,1906,"True Belief","Start","Start","Implicit","cupboard","drawer","False","True",139833.564999994
1909,994,"4_fb_1_e_e_im",4,"critical",5,"shed","i don't know","False",32069.6999998093,1909,"False Belief","End","End","Implicit","shed","garage","False","False",1883.7999997139
1912,1000,"8_tb_1_e_e_im",8,"critical",5,"bedroom","hall","False",48073,1912,"True Belief","End","End","Implicit","hall","bedroom","True","False",59525.1000000238
1915,1077,"6_tb_1_s_e_ex",6,"critical",5,"cabinet","drawer","False",32963.6999998093,1915,"True Belief","Start","End","Explicit","drawer","cabinet","True","False",15918
1918,1075,"6_fb_1_s_s_ex",6,"critical",5,"drawer","desk","False",5580.90000000596,1918,"False Belief","Start","Start","Explicit","drawer","cabinet","False","False",21353.200000003
